time,seconds_elapsed,rotationRateX,rotationRateY,rotationRateZ,gravityX,gravityY,gravityZ,accelerationX,accelerationY,accelerationZ,quaternionW,quaternionX,quaternionY,quaternionZ
1719103265445705700,0.106705810546875,-0.06612806022167206,-0.019354671239852905,-0.053444333374500275,0.0033002181444317102,-0.543177604675293,-0.8396113514900208,-0.012150300666689873,0.012370109558105469,0.003002464771270752,0.959065011453579,0.2831808096512365,0.001720539356044557,-4.928188564869249e-17
1719103265455760000,0.116759765625,-0.06204863265156746,-0.022118499502539635,-0.06423413008451462,0.00316102453507483,-0.5429175496101379,-0.8397800922393799,-0.013536996208131313,0.02800971269607544,-0.002794981002807617,0.9591090386198712,0.28303267095704004,0.0015668392346377983,-0.00027467703913914524
1719103265465814500,0.126814453125,-0.07396034151315689,-0.015463259071111679,-0.0575236938893795,0.0031006995122879744,-0.5424855947494507,-0.8400593996047974,-0.00938731711357832,0.031911253929138184,0.006181836128234863,0.9591816313177236,0.2827865037074249,0.0014459571314831745,-0.0005778712943326583
1719103265475868700,0.13686865234375,-0.05854010209441185,-0.009340918622910976,-0.0742744505405426,0.0033168825320899487,-0.5419390201568604,-0.8404112458229065,-0.0026760234031826258,0.026192009449005127,0.015811026096343994,0.9592730619510642,0.28247518710548725,0.0014647948417171412,-0.0008967267872182212
1719103265485923800,0.146923828125,-0.03201176971197128,0.02039567194879055,-0.13371312618255615,0.00392124941572547,-0.541576623916626,-0.8406422734260559,-0.011092867702245712,0.027721643447875977,0.010106325149536133,0.9593326392531292,0.2822697454604002,0.0016322877375209142,-0.0013983706980856686
1719103265495977700,0.156977783203125,-0.030329983681440353,0.03398844599723816,-0.17134307324886322,0.004998731426894665,-0.5414632558822632,-0.8407095670700073,-0.015664637088775635,0.035191893577575684,0.006542086601257324,0.9593490254508188,0.2822078216918677,0.001991136609621713,-0.002087719153284123
1719103265506032600,0.16703271484375,-0.04816671833395958,0.028186216950416565,-0.18461386859416962,0.005965087562799454,-0.5412702560424805,-0.8408275246620178,0.003998895175755024,0.042994558811187744,0.008674204349517822,0.9593777155882083,0.28210124522398383,0.0022636214739402078,-0.00287441391684253
1719103265516086500,0.17708642578125,-0.05847208574414253,0.03289761394262314,-0.15897321701049805,0.006707870401442051,-0.5409266948699951,-0.8410429954528809,0.012945453636348248,0.03921771049499512,0.00850820541381836,0.9594313686349984,0.2819087855912156,0.0024371638079214806,-0.0036027390904960366
1719103265526141700,0.1871416015625,-0.04358075559139252,0.03435036912560463,-0.1283656507730484,0.007481600157916546,-0.5403813123703003,-0.8413869738578796,0.015101401135325432,0.03365218639373779,0.007265269756317139,0.9595185437976049,0.28160149415556807,0.0026642161961868104,-0.004206068541455044
1719103265536195800,0.19719580078125,0.004559342283755541,0.02370225265622139,-0.12732595205307007,0.008135966025292873,-0.5399043560028076,-0.841687023639679,0.010510278865695,0.03880578279495239,-0.0057555437088012695,0.9595942830273346,0.2813331386265814,0.002853387997119812,-0.004727094734620716
1719103265546250500,0.20725048828125,0.05566660314798355,0.019897660240530968,-0.12383540719747543,0.00879848562180996,-0.5398936867713928,-0.8416872024536133,0.011327864602208138,0.0430065393447876,-0.01785564422607422,0.9595914378013325,0.28133108724482275,0.0030342026988871263,-0.005287889535631691
1719103265556304600,0.2173046875,0.10477768629789352,0.023594660684466362,-0.1141287162899971,0.009501393884420395,-0.5404255390167236,-0.8413382172584534,0.0286150760948658,0.04245495796203613,-0.01506131887435913,0.9594974638405834,0.2816386873601259,0.0032473639749478317,-0.0058048112644327595
1719103265566359800,0.22735986328125,0.12602731585502625,0.019046779721975327,-0.08810830116271973,0.01003766804933548,-0.5412201881408691,-0.8408210277557373,0.03447221964597702,0.03766489028930664,-0.013869524002075195,0.959360032839173,0.2820956342326614,0.003396694053045535,-0.00623966247298862
1719103265576413700,0.23741357421875,0.1462446004152298,0.02111152932047844,-0.08424045890569687,0.010404053144156933,-0.5420994758605957,-0.8402499556541443,0.01141601987183094,0.027313709259033203,-0.011480391025543213,0.9592090071363306,0.28260020406522307,0.0034861906064389426,-0.00657480410699076
1719103265586468600,0.247468505859375,0.1584092527627945,0.035523757338523865,-0.07153604924678802,0.011069796979427338,-0.5430201888084412,-0.8396466970443726,-0.003608240745961666,0.023000657558441162,-0.01823294162750244,0.9590493082087699,0.2831302753602458,0.0037282403212857396,-0.006920249606645076
1719103265596522500,0.2575224609375,0.17267100512981415,0.034134916961193085,-0.0717773288488388,0.011901138350367546,-0.544049859046936,-0.8389684557914734,-0.0028679296374320984,0.021619439125061035,-0.02675420045852661,0.9588700234030906,0.2837239037190664,0.004062715046407867,-0.007242793552245607
1719103265606577700,0.26757763671875,0.18064169585704803,0.01326559018343687,-0.05191174894571304,0.012601763941347599,-0.5451778173446655,-0.8382257223129272,-0.00198165699839592,0.020473837852478027,-0.023270249366760254,0.9586741104136123,0.2843735826952706,0.004335922711038303,-0.007539888466992397
1719103265616631800,0.2776318359375,0.20317204296588898,-0.008503088727593422,-0.018571367487311363,0.012891133315861225,-0.5461766123771667,-0.83757084608078,0.013567609712481499,0.023334205150604248,-0.02221614122390747,0.9585018436044623,0.28494730659362566,0.004426734819176822,-0.007729615583046308
1719103265626686500,0.2876865234375,0.22635594010353088,-0.008075917139649391,-0.006262038368731737,0.013019552454352379,-0.5470760464668274,-0.8369816541671753,0.016231559216976166,0.021349728107452393,-0.026208043098449707,0.958347326465651,0.2854632507202649,0.004462981941708391,-0.007821285338364072
1719103265636740600,0.29774072265625,0.2602129876613617,-0.008122256025671959,-0.010531351901590824,0.013492581434547901,-0.5482673048973083,-0.8361943364143372,0.01418684795498848,0.01533883810043335,-0.027758300304412842,0.9581409090126528,0.286148685564837,0.004664583280970568,-0.007957271498737864
1719103265646795800,0.307795654296875,0.2643927335739136,-0.007210389710962772,-0.008059338666498661,0.014093205332756042,-0.5496744513511658,-0.8352600932121277,0.026983465999364853,0.0023569464683532715,-0.020849525928497314,0.9578957691524944,0.286959394712178,0.004926135082713657,-0.008112224155840175
1719103265656849700,0.317849609375,0.250950425863266,-0.004399956203997135,-0.006689142435789108,0.014222640544176102,-0.5512065291404724,-0.8342476487159729,0.033659446984529495,-0.006425917148590088,-0.0006675124168395996,0.9576308628563232,0.2878394074044385,0.0049650852946212885,-0.008187209113925481
1719103265666904600,0.327904541015625,0.22330158948898315,0.0028672777116298676,0.011664696969091892,0.014067912474274635,-0.5525718331336975,-0.8333465456962585,0.02969430387020111,-0.00998920202255249,0.006610095500946045,0.957395664371547,0.2886224073633404,0.004882525610028385,-0.008174858902842985
1719103265676958500,0.33795849609375,0.19299589097499847,-0.0014411841984838247,0.023697659373283386,0.013901385478675365,-0.553734302520752,-0.8325774073600769,0.019561145454645157,-0.010612010955810547,0.008007705211639404,0.957195634198907,0.289288933762044,0.004818197149921919,-0.008084428042714467
1719103265687013600,0.348013671875,0.17545245587825775,0.01677750051021576,0.018629197031259537,0.013751012273132801,-0.5547738075256348,-0.8318876028060913,0.012967138551175594,-0.008489131927490234,0.010796904563903809,0.9570163066897674,0.28988525549301475,0.0047689433913256475,-0.007974015775997354
1719103265697067800,0.35806787109375,0.17369449138641357,0.03972276300191879,-0.0008057537488639355,0.014150943607091904,-0.555801272392273,-0.8311946988105774,0.008615154772996902,-0.0023804306983947754,0.008211970329284668,0.956835765756878,0.29047841633356636,0.004992996660973427,-0.007911065711904985
1719103265707122700,0.368122802734375,0.13845159113407135,0.028364116325974464,-0.026483286172151566,0.01480117253959179,-0.5564717054367065,-0.8307347297668457,0.009078841656446457,0.008757412433624268,0.010269641876220703,0.9567150722221285,0.29086840813641895,0.005311136604456578,-0.007973852886304738
1719103265717176600,0.378176513671875,0.12683835625648499,0.041850894689559937,-0.04103133827447891,0.015517226420342922,-0.5570072531700134,-0.8303626775741577,0.014389986172318459,0.009048879146575928,0.022058844566345215,0.9566165486588748,0.29118190128869426,0.005636334168938015,-0.008128261026571307
1719103265727231700,0.388231689453125,0.12383558601140976,0.048649147152900696,-0.03807096555829048,0.016562839969992638,-0.5577152967453003,-0.8298670649528503,0.014290416613221169,0.011832177639007568,0.021349608898162842,0.9564853638408533,0.291597341052213,0.006121467383483363,-0.008320808663047156
1719103265737285600,0.39828564453125,0.12603402137756348,0.05097674950957298,-0.03614097461104393,0.01765376515686512,-0.558708131313324,-0.8291764259338379,0.01098698377609253,0.013587892055511475,0.02641153335571289,0.9563032724381642,0.29217765001939866,0.006632729287888416,-0.008501614319592829
1719103265747340800,0.4083408203125,0.13997727632522583,0.058931879699230194,-0.03419859707355499,0.01862880401313305,-0.5598523020744324,-0.8283830285072327,0.013536715880036354,0.012870490550994873,0.029738008975982666,0.9560945323490048,0.2928449966329213,0.0070919410861447554,-0.008652479995941358
1719103265757394400,0.41839453125,0.15519271790981293,0.07118534296751022,-0.03087497316300869,0.01955760084092617,-0.5611147880554199,-0.8275068998336792,0.015415532514452934,0.018069744110107422,0.0210341215133667,0.9558643905740382,0.2935807844785747,0.007541189523468618,-0.00875549931132583
1719103265767449600,0.42844970703125,0.17859044671058655,0.07722539454698563,-0.036352161318063736,0.020465636625885963,-0.5625444650650024,-0.8265137076377869,0.0011408235877752304,0.013945221900939941,0.00954294204711914,0.9556040606452516,0.29441349223574836,0.007989181818158378,-0.008825423128538549
1719103265777503700,0.438503662109375,0.20408488810062408,0.07683151215314865,-0.024618541821837425,0.02131645381450653,-0.564086377620697,-0.8254405856132507,-0.020568758249282837,0.008956372737884521,-0.0029285550117492676,0.9553226777639618,0.29531161637705294,0.008411665459211648,-0.008880017569269831
1719103265787558700,0.44855859375,0.22335340082645416,0.07597796618938446,-0.006138467229902744,0.022104887291789055,-0.5656710267066956,-0.8243346810340881,-0.0312906876206398,0.010754644870758057,-0.017630040645599365,0.9550333746606997,0.2962344416418708,0.008820842714075568,-0.008872177485566818
1719103265797612500,0.458612548828125,0.24051827192306519,0.07134593278169632,0.0018717884086072445,0.022867588326334953,-0.5674939751625061,-0.8230599164962769,-0.026132984086871147,0.013416826725006104,-0.020598530769348145,0.9547002442094382,0.29729569718242094,0.009235957416399265,-0.008800071359482471
1719103265807667700,0.468667724609375,0.2234700471162796,0.06676263362169266,0.012653861194849014,0.02352975122630596,-0.5692781209945679,-0.8218082785606384,-0.015610439702868462,0.014788985252380371,-0.024505198001861572,0.9543735211651048,0.2983345083284098,0.009612066283662889,-0.008686137332749273
1719103265817721600,0.4787216796875,0.1846158504486084,0.06598179787397385,0.02622879296541214,0.024060267955064774,-0.5708346962928772,-0.8207124471664429,-0.01694965735077858,0.008777201175689697,-0.01826155185699463,0.9540878223706639,0.2992408924417349,0.009933465278718072,-0.008530703288328657
1719103265827776800,0.48877685546875,0.12915919721126556,0.06275884062051773,0.037966009229421616,0.02457035519182682,-0.5720146298408508,-0.8198752999305725,-0.020023228600621223,-0.0009833574295043945,-0.012415289878845215,0.9538703097743645,0.29992820413622057,0.010267694607780804,-0.0083057499838921
1719103265837830700,0.49883056640625,0.08497548848390579,0.0642523393034935,0.04737016186118126,0.025039134547114372,-0.5726597309112549,-0.8194106817245483,-0.014663171023130417,-0.005938291549682617,-0.00291597843170166,0.9537509210191898,0.30030382910806735,0.01059519983280275,-0.008039810402505345
1719103265847885600,0.508885498046875,0.06014534458518028,0.06034042313694954,0.04037657007575035,0.02526206150650978,-0.5730116963386536,-0.8191577196121216,-0.005349349230527878,-0.008485496044158936,-0.00030028820037841797,0.9536870560278776,0.3005068071057313,0.010807091936097683,-0.007735090403267982
1719103265857939700,0.518939697265625,0.01620478555560112,0.053825534880161285,0.03899811953306198,0.025086352601647377,-0.5731011033058167,-0.819100558757782,0.0001822095364332199,-0.014270663261413574,0.0009548664093017578,0.9536747481506124,0.3005537889144648,0.010822488127686805,-0.007393162673293686
1719103265867994600,0.52899462890625,-0.017228644341230392,0.0444038026034832,0.05004690960049629,0.02466786652803421,-0.5726976990699768,-0.8193954229354858,0.00000560469925403595,-0.020014703273773193,0.01078641414642334,0.9537548380820433,0.3003121747561169,0.010718780510751987,-0.0070288330990658406
1719103265878048800,0.539048828125,-0.03414531052112579,0.03374157100915909,0.05879698693752289,0.024204162880778313,-0.5721086263656616,-0.8198206424713135,-0.0006903838366270065,-0.02917921543121338,0.013912439346313477,0.9538691804754567,0.29996214741631577,0.010601204711369322,-0.006633901442195072
1719103265888103700,0.549103759765625,-0.025371499359607697,0.041716139763593674,0.05092408508062363,0.02393706515431404,-0.5714837312698364,-0.8202642202377319,-0.007945865392684937,-0.0252264142036438,0.006039977073669434,0.9539879053899543,0.2995931153313726,0.01057619806025035,-0.00627173249472143
1719103265898157600,0.559157470703125,0.005073492415249348,0.03230931982398033,0.04722309112548828,0.023694485425949097,-0.571184515953064,-0.8204796314239502,-0.011441677808761597,-0.006406426429748535,0.0014793872833251953,0.9540463429708332,0.29941414351775386,0.010552516426314027,-0.005943783962388523
1719103265908212700,0.569212646484375,0.02952277660369873,0.02437177114188671,0.0583847351372242,0.02332381159067154,-0.5712672472000122,-0.8204326629638672,-0.005760936066508293,0.005425572395324707,-0.0021686553955078125,0.9540360571929184,0.29945652220648794,0.010462452397067492,-0.005611327573241502
1719103265918267000,0.579266845703125,0.059879083186388016,0.020802868530154228,0.07827907800674438,0.022904161363840103,-0.5717053413391113,-0.8201392889022827,-0.008286233991384506,-0.0018267631530761719,-0.002507805824279785,0.9539614964331384,0.29970472008736443,0.01036556393594918,-0.00521757564019649
1719103265928321500,0.589321533203125,0.04992913827300072,0.021269720047712326,0.07100238651037216,0.022618534043431282,-0.5722740888595581,-0.8197504878044128,-0.019002191722393036,-0.0048896074295043945,0.007845520973205566,0.9538616617593523,0.300029833071346,0.010337571403796496,-0.004828367372412053
1719103265938376700,0.599376708984375,0.03600480034947395,0.030420875176787376,0.07454785704612732,0.02244521677494049,-0.5728042721748352,-0.8193848133087158,-0.021956950426101685,-0.004527270793914795,0.02051091194152832,0.9537676312651754,0.3003333154150581,0.010367806797089032,-0.004442164580020922
1719103265948430800,0.609430908203125,-0.00998348742723465,0.029675189405679703,0.06006551533937454,0.022326963022351265,-0.573208749294281,-0.8191051483154297,-0.02362397126853466,-0.006762564182281494,0.03429985046386719,0.9536960093495219,0.3005641289022576,0.01042236481366897,-0.004071389597401592
1719103265958485500,0.619485595703125,-0.05814089626073837,0.04680038243532181,0.036315180361270905,0.02237820439040661,-0.5733131766319275,-0.8190306425094604,-0.03550076112151146,-0.00851970911026001,0.03478991985321045,0.9536777100277126,0.30062190535609773,0.010542265854635836,-0.003776100161682217
1719103265968539600,0.62953955078125,-0.08054937422275543,0.06028503179550171,-0.0029886802658438683,0.02259794995188713,-0.5730282664299011,-0.8192240595817566,-0.03442351520061493,-0.003723442554473877,0.028528869152069092,0.9537291674889452,0.30045489133478603,0.010716310037968989,-0.003589614337111527
1719103265978594800,0.6395947265625,-0.09277168661355972,0.04826458543539047,-0.05900747328996658,0.02303551323711872,-0.5723630785942078,-0.8196766972541809,-0.026133056730031967,-0.004815876483917236,0.024953186511993408,0.9538477073665584,0.3000699167282032,0.010940116223732112,-0.003607666699848066
1719103265988648700,0.649648681640625,-0.08122853189706802,0.03780369088053703,-0.08546264469623566,0.023761214688420296,-0.5715314149856567,-0.820236086845398,-0.010165629908442497,0.004301190376281738,0.00933825969696045,0.9539931207305339,0.2995926329502346,0.011234687207649413,-0.003881245812167495
1719103265998703600,0.65970361328125,-0.03618462756276131,0.03825829178094864,-0.08153315633535385,0.024406911805272102,-0.5710081458091736,-0.8205814957618713,0.0030283909291028976,0.00882863998413086,-0.020162522792816162,0.9540822254969453,0.29929533405135256,0.011470362131396118,-0.004209178316349417
1719103266008757500,0.669757568359375,0.0013593147741630673,0.03830516338348389,-0.057261575013399124,0.02481502667069435,-0.5709898471832275,-0.8205820322036743,0.009852930903434753,0.008611917495727539,-0.037602782249450684,0.9540814160292204,0.29928949542651095,0.011609449581847555,-0.004447709714729284
1719103266018812700,0.679812744140625,0.02115192823112011,0.0300269927829504,-0.026103654876351357,0.024973487481474876,-0.5713054537773132,-0.8203575611114502,0.01875821314752102,0.006348788738250732,-0.02688676118850708,0.9540221687641159,0.29947485608197266,0.011663767378784171,-0.004538780886985389
1719103266028866800,0.68986669921875,0.014073618687689304,0.03025922179222107,-0.00418490543961525,0.024897346273064613,-0.5717849731445312,-0.8200256824493408,0.02898143045604229,-0.00428009033203125,-0.00602412223815918,0.9539353751002095,0.2997528715465206,0.011635207217568428,-0.004501832039021318
1719103266038921500,0.69992138671875,-0.019638538360595703,0.03163394331932068,-0.007102132309228182,0.024620143696665764,-0.5721069574356079,-0.8198093771934509,0.03050985373556614,-0.011419594287872314,0.007034778594970703,0.9538790952622339,0.29993757345419386,0.011521735510541435,-0.004400013687154414
1719103266048975600,0.7099755859375,-0.054980840533971786,0.036487024277448654,-0.020050622522830963,0.024502743035554886,-0.5720354318618774,-0.8198627829551697,0.02366926148533821,-0.004456877708435059,0.013100147247314453,0.9538933442083374,0.29989467330230535,0.01147950293648473,-0.004338690950512368
1719103266059030800,0.72003076171875,-0.09402784705162048,0.034624408930540085,-0.04536769539117813,0.024619296193122864,-0.5716267228126526,-0.8201443552970886,0.010475905612111092,-0.008161485195159912,0.016280829906463623,0.9539670105893362,0.29965794097598664,0.011529957070098192,-0.004373150873304834
1719103266069084700,0.730084716796875,-0.15792986750602722,0.034394845366477966,-0.039977189153432846,0.02503952942788601,-0.5706002116203308,-0.8208461999893188,0.005798490718007088,-0.01944190263748169,0.021484017372131348,0.9541502777895258,0.29906508757134437,0.011703817861327615,-0.004522641074478856
1719103266079139600,0.7401396484375,-0.19336535036563873,0.04026231914758682,-0.039310600608587265,0.025578005239367485,-0.5689685344696045,-0.8219614028930664,0.010631099343299866,-0.027161836624145508,0.018677711486816406,0.9544417833676385,0.29812178970629066,0.011945125696353684,-0.004656068653164114
1719103266089193500,0.750193359375,-0.24210704863071442,0.05698776990175247,-0.043675124645233154,0.026306478306651115,-0.566890299320221,-0.8233731985092163,0.008742962032556534,-0.025394856929779053,0.014169096946716309,0.9548108820368046,0.29692150427684805,0.012289189865179666,-0.004780344249332587
1719103266099248600,0.76024853515625,-0.2794629633426666,0.0785316750407219,-0.0726708173751831,0.027400564402341843,-0.5645574331283569,-0.8249388337135315,-0.002711847424507141,-0.01576477289199829,0.02159416675567627,0.9552197685221334,0.2955782822082472,0.012808266308539358,-0.004958324601325713
1719103266109302800,0.770302734375,-0.3023904860019684,0.0881374329328537,-0.11381113529205322,0.028982777148485184,-0.5622403621673584,-0.8264658451080322,-0.012014999985694885,-0.0166780948638916,0.03249001502990723,0.9556175125964808,0.29425168631517734,0.01352816666496099,-0.005313940587363813
1719103266119357700,0.780357666015625,-0.34321674704551697,0.09023653715848923,-0.18524298071861267,0.03092006966471672,-0.5598070621490479,-0.8280459046363831,-0.01579860970377922,-0.01856207847595215,0.04099756479263306,0.956027183385389,0.2928667069244889,0.014357385302765736,-0.005920727367733716
1719103266129411600,0.79041162109375,-0.34431400895118713,0.08134716749191284,-0.23737294971942902,0.03318103775382042,-0.5572484731674194,-0.8296825885772705,-0.011742431670427322,-0.015566468238830566,0.04237484931945801,0.9564490832774796,0.29141993710811864,0.01526887089215289,-0.006817037521591655
1719103266139466800,0.800466796875,-0.3584703207015991,0.10747837275266647,-0.31113266944885254,0.03546613082289696,-0.554664134979248,-0.8313181400299072,-0.0009965375065803528,-0.007423877716064453,0.04220986366271973,0.9568676988685537,0.28996734877783886,0.016120038584971796,-0.007960625538372913
1719103266149520600,0.810520751953125,-0.38518026471138,0.16971032321453094,-0.3580109477043152,0.03844558820128441,-0.5519888401031494,-0.8329647183418274,-0.010384678840637207,0.020052194595336914,0.03459435701370239,0.9572852414658232,0.28847802560556957,0.01726456367723064,-0.009344497425040146
1719103266159575800,0.820575927734375,-0.4682711660861969,0.19978487491607666,-0.36262407898902893,0.04224726930260658,-0.5489727258682251,-0.8347719311714172,-0.0077166371047496796,-0.004814505577087402,0.025598347187042236,0.9577415843435945,0.2868100696815771,0.018815590420400107,-0.010819567735989577
1719103266169629700,0.830629638671875,-0.6875825524330139,0.10095921903848648,-0.3786581754684448,0.04552699252963066,-0.5440880060195923,-0.8377920985221863,-0.007837779819965363,-0.06838446855545044,0.03397434949874878,0.9585115880005468,0.2840774491806881,0.020098947867182037,-0.012315028399758931
1719103266179684600,0.8406845703125,-0.9489119052886963,0.13041432201862335,-0.39241233468055725,0.048545949161052704,-0.5369067788124084,-0.8422436714172363,-0.009498704224824905,-0.11871761083602905,0.03834962844848633,0.9596505931520912,0.28004799218612864,0.02124334386770167,-0.013879004444455105
1719103266189738800,0.85073876953125,-1.0735224485397339,0.21749809384346008,-0.4878981113433838,0.0516824908554554,-0.5283359289169312,-0.847460925579071,-0.0421762578189373,-0.16780054569244385,0.019274890422821045,0.9609859524358852,0.275252396292938,0.022486803103147754,-0.015374051117162989
1719103266199794200,0.860794189453125,-1.185453176498413,0.14828865230083466,-0.7458884119987488,0.05674036964774132,-0.5183496475219727,-0.8532843589782715,-0.05478724464774132,-0.18154048919677734,0.009229183197021484,0.9624518658654319,0.2697455107698523,0.02439659655139943,-0.01812684644084982
1719103266209847800,0.870847900390625,-1.1265703439712524,0.03843512386083603,-0.27653154730796814,0.06016692519187927,-0.5080212950706482,-0.8592405319213867,-0.0002914257347583771,-0.1284075379371643,0.04168987274169922,0.9639527462725267,0.2640512287362938,0.02562567316667904,-0.020380606754573868
1719103266219903000,0.880903076171875,-0.9005186557769775,0.23361366987228394,-0.29976654052734375,0.06230274587869644,-0.49895668029785156,-0.8643845319747925,0.015272922813892365,0.024881362915039062,0.05344092845916748,0.9652695149331156,0.2590372643882762,0.026597439884446576,-0.021146283785367086
1719103266229956900,0.890956787109375,-0.6587185263633728,0.07971944659948349,-0.0241156704723835,0.06474965810775757,-0.49232998490333557,-0.8679969310760498,-0.062216684222221375,0.07889309525489807,0.027664899826049805,0.9661885620339346,0.2554069150335632,0.027728144919152157,-0.02186397684108059
1719103266240012000,0.901011962890625,-0.5008963942527771,0.201685830950737,0.0755816325545311,0.06569686532020569,-0.4871059060096741,-0.8708683848381042,-0.04494490474462509,0.13294941186904907,0.03616684675216675,0.9669429768048026,0.25250609869180946,0.028398485940395922,-0.021340934457339814
1719103266250066000,0.91106591796875,-0.38900643587112427,0.2053530067205429,-0.005895054433494806,0.06741773337125778,-0.4834112524986267,-0.872793436050415,-0.08466015756130219,0.0770544707775116,0.002798318862915039,0.9674512107526744,0.25047224664127093,0.029443620952217923,-0.020855009799993822
1719103266260120800,0.921120849609375,-0.3927934765815735,0.1628313809633255,-0.05492091923952103,0.06917993724346161,-0.4799075424671173,-0.8745872974395752,-0.04923669993877411,0.03035309910774231,-0.016739606857299805,0.9679177608437898,0.24855803829693363,0.03041810557083091,-0.02071043127588844
1719103266270175000,0.931175048828125,-0.3504915237426758,0.11721355468034744,-0.13441860675811768,0.07085534185171127,-0.4765159487724304,-0.876305878162384,-0.02198144793510437,0.045775651931762695,-0.02033102512359619,0.9683564506025375,0.24671951578204115,0.03124951210948046,-0.02094283279251911
1719103266280230100,0.941230224609375,-0.2031359076499939,0.12155983597040176,-0.1867089867591858,0.07266674190759659,-0.47390756011009216,-0.877571165561676,-0.03757152706384659,0.09226998686790466,-0.013038575649261475,0.9686699068261204,0.24533058805866506,0.03205168531553842,-0.02154590399781185
1719103266290284000,0.951283935546875,0.03376151621341705,0.2647361755371094,-0.5013988018035889,0.07623877376317978,-0.4726893901824951,-0.8779250383377075,-0.04117406904697418,0.12089800834655762,-0.0058640241622924805,0.9687287364683853,0.24476925079535516,0.03354829536254908,-0.022961170296284306
1719103266300339000,0.9613388671875,0.07257309556007385,-0.010727360844612122,-0.17267312109470367,0.07856578379869461,-0.47333264350891113,-0.8773731589317322,0.02325611561536789,0.06294751167297363,-0.017524302005767822,0.9685488331801163,0.24522017188810571,0.03435838040860412,-0.024488701715315808
1719103266310392800,0.971392822265625,-0.020786548033356667,0.18069453537464142,-0.3159013092517853,0.08078141510486603,-0.47321829199790955,-0.877233624458313,-0.02687210589647293,0.09765371680259705,0.03999912738800049,0.9684875857020308,0.24523507549331358,0.035255411115692664,-0.02547058269728586
1719103266320448000,0.981447998046875,-0.03380114957690239,0.1263069212436676,-0.316331684589386,0.08368870615959167,-0.47276800870895386,-0.8772038221359253,-0.11190220713615417,0.040745943784713745,0.02352041006088257,0.9684408106986012,0.24509861815637893,0.036397085677938666,-0.02691133302330934
1719103266330502100,0.991502197265625,-0.18741396069526672,0.1131916493177414,-0.28635507822036743,0.08614084124565125,-0.47157642245292664,-0.8776078224182129,-0.05109141767024994,-0.019893914461135864,0.03729104995727539,0.9685095019224436,0.24454113670506736,0.03735952634099472,-0.028164437748810327
1719103266340556800,1.001556884765625,-0.3184700012207031,0.1060626357793808,-0.36048123240470886,0.08866162598133087,-0.46900495886802673,-0.8787340521812439,-0.06012769043445587,-0.03285661339759827,0.050807416439056396,0.968758419027856,0.24323504942667026,0.03833657096661339,-0.029567844404463143
1719103266350611000,1.01161083984375,-0.39104917645454407,0.13674305379390717,-0.3739915192127228,0.09147953242063522,-0.4655299186706543,-0.8802916407585144,-0.09231875091791153,-0.0326390266418457,0.061535537242889404,0.9691103176572048,0.2414522178974767,0.0394334215061715,-0.03116322195864437
1719103266360666000,1.021666015625,-0.4104710817337036,0.1678575724363327,-0.37684428691864014,0.09455246478319168,-0.4615630805492401,-0.8820540904998779,-0.10791917145252228,-0.016876250505447388,0.04782557487487793,0.9695136873833865,0.23941129995204666,0.040684115859543936,-0.03271535788692674
1719103266370720000,1.031719970703125,-0.3537108600139618,0.17863377928733826,-0.39160847663879395,0.09792356938123703,-0.45780545473098755,-0.8836430907249451,-0.10538510233163834,-0.002872645854949951,0.02269643545150757,0.9698692552991797,0.2375016133046761,0.042088422394191236,-0.03427983629406697
1719103266380775000,1.04177490234375,-0.25692787766456604,0.13481998443603516,-0.39139941334724426,0.10116391628980637,-0.454667329788208,-0.8848974108695984,-0.07189755886793137,0.022050172090530396,0.012140512466430664,0.9701327269861177,0.23594006661941183,0.0434000950793609,-0.03593330468128584
1719103266390828800,1.051828857421875,-0.12858641147613525,0.09742414206266403,-0.3938214182853699,0.10396797955036163,-0.4525302052497864,-0.8856675624847412,-0.025675132870674133,0.056015342473983765,-0.008176982402801514,0.9702656253742418,0.23492477014314048,0.044458598701583044,-0.03766031112255287
1719103266400884000,1.061884033203125,-0.0025096992030739784,0.07388366013765335,-0.4114885628223419,0.10653877258300781,-0.45152607560157776,-0.8858745098114014,-0.005647666752338409,0.06543296575546265,-0.011922061443328857,0.9702461142615236,0.2345325845426074,0.04535636981137418,-0.03949363292643663
1719103266410938000,1.071938232421875,0.161933034658432,-0.04735194891691208,-0.5164103507995605,0.1087501049041748,-0.4516485631465912,-0.8855433464050293,-0.023514501750469208,0.032337039709091187,-0.009232044219970703,0.9700685877879388,0.23476769127919178,0.04596155456744421,-0.041697361637947655
1719103266420992800,1.08199267578125,0.2811254858970642,0.014224860817193985,-0.45533043146133423,0.11086342483758926,-0.45319652557373047,-0.8844898343086243,-0.11750101298093796,-0.018818825483322144,-0.04560965299606323,0.9696842292956921,0.23579984348053717,0.04640615325439339,-0.044242594565765694
1719103266431047000,1.092046875,0.18400882184505463,0.05912549048662186,-0.3699769377708435,0.11307208240032196,-0.45486292243003845,-0.8833540678024292,-0.20680683851242065,-0.022798210382461548,-0.0662766695022583,0.9693003178506323,0.23687639824137846,0.04703750041044196,-0.04619531035656137
1719103266441102000,1.10210205078125,0.05770682543516159,-0.002772232284769416,-0.45039641857147217,0.11522708833217621,-0.4554823637008667,-0.882756233215332,-0.17723879218101501,-0.0281144380569458,-0.0029249191284179688,0.9690500893223225,0.23738353015385208,0.047654476779261386,-0.04816664867413174
1719103266451156000,1.112156005859375,-0.08017788827419281,-0.07993679493665695,-0.4875999093055725,0.11703144013881683,-0.45479753613471985,-0.8828719258308411,-0.09492146968841553,-0.04755231738090515,0.051542580127716064,0.9689599334924308,0.2371873540410411,0.048022896933039017,-0.050523177658923286
1719103266461211000,1.1222109375,-0.16475935280323029,-0.16303327679634094,-0.47959232330322266,0.11817228049039841,-0.45305898785591125,-0.8836135268211365,-0.06505642831325531,-0.049763888120651245,0.043632447719573975,0.969018678621117,0.2364000196148573,0.04804449894365244,-0.053003906470364605
1719103266471264800,1.1322646484375,-0.18900080025196075,-0.19076690077781677,-0.46036145091056824,0.11872455477714539,-0.45091602206230164,-0.8846350908279419,-0.11466570943593979,-0.047222405672073364,-0.0005882978439331055,0.9691445635313002,0.23537071294468992,0.0477816186167252,-0.05546561989754963
1719103266481320000,1.14231982421875,-0.2266312688589096,-0.21963663399219513,-0.4664347767829895,0.11901859194040298,-0.4485138952732086,-0.8858159184455872,-0.15667729079723358,-0.029391348361968994,-0.05441540479660034,0.9693070314371656,0.23418952539913515,0.04740567222789992,-0.05789603562680346
1719103266491374000,1.1523740234375,-0.22006496787071228,-0.27913805842399597,-0.49034741520881653,0.11894745379686356,-0.4459494352340698,-0.8871192932128906,-0.13893648982048035,0.00013339519500732422,-0.07207870483398438,0.9694866501450559,0.23291239880127868,0.04682068920424456,-0.06045918859965871
1719103266501428700,1.1624287109375,-0.21500204503536224,-0.33924853801727295,-0.512092113494873,0.11843021214008331,-0.44340887665748596,-0.8884609341621399,-0.10483462363481522,0.025669008493423462,-0.07734411954879761,0.9696568046230399,0.23163890180385555,0.04596676988929722,-0.0632152677742242
1719103266511483000,1.17248291015625,-0.1639612317085266,-0.37606751918792725,-0.5273879766464233,0.11755497008562088,-0.44106820225715637,-0.8897413611412048,-0.10235722362995148,0.04861217737197876,-0.051054537296295166,0.9697923654673789,0.23046471144411282,0.044892619341351025,-0.06613145586887545
1719103266521538000,1.1825380859375,-0.12793585658073425,-0.395663857460022,-0.5226597785949707,0.11643575131893158,-0.4391826391220093,-0.8908206224441528,-0.11809895932674408,0.04372060298919678,-0.018130183219909668,0.9698631894958737,0.22952656289242732,0.04367212620620893,-0.0691069779862572
1719103266531592000,1.192592041015625,-0.19249550998210907,-0.4137912094593048,-0.5170065760612488,0.11511875689029694,-0.4371943771839142,-0.8919690251350403,-0.13474157452583313,0.020049631595611572,0.012467682361602783,0.9699435938007696,0.228518725761959,0.04236372390651132,-0.0720682943331224
1719103266541646800,1.202646728515625,-0.30293920636177063,-0.45209091901779175,-0.5202556252479553,0.11351529508829117,-0.43437713384628296,-0.8935495615005493,-0.13466396927833557,-0.003305971622467041,0.039179444313049316,0.9701253929183914,0.2270438992898969,0.04094250990043261,-0.07504398609484945
1719103266551701000,1.212700927734375,-0.40047284960746765,-0.4943307936191559,-0.5256533622741699,0.11153724044561386,-0.4306032657623291,-0.8956228494644165,-0.12830665707588196,-0.0187222957611084,0.049156785011291504,0.9704208232343334,0.22503106421091598,0.03936495064297695,-0.07806945662387214
1719103266561756000,1.222755859375,-0.5100134611129761,-0.5200278759002686,-0.5386288166046143,0.10923069715499878,-0.4259782135486603,-0.898115336894989,-0.12503880262374878,-0.014420926570892334,0.036832988262176514,0.9708096074725625,0.22254103086446628,0.03765377341463641,-0.08115673550754185
1719103266571810000,1.23281005859375,-0.5631246566772461,-0.5866152048110962,-0.5499863624572754,0.10660070925951004,-0.4204171597957611,-0.9010469913482666,-0.11555761843919754,0.012824416160583496,0.03236418962478638,0.9712928573581078,0.21953122903177882,0.035812525284189406,-0.08434291849143355
1719103266581865000,1.242864990234375,-0.5725823044776917,-0.636246919631958,-0.5527192950248718,0.10334646701812744,-0.4147527515888214,-0.9040462970733643,-0.10520804673433304,0.02743890881538391,0.03356289863586426,0.9717741605044159,0.21643472516582957,0.03365810844698306,-0.08762528199105576
1719103266591918800,1.2529189453125,-0.6104207634925842,-0.6538962125778198,-0.534752368927002,0.09975435584783554,-0.4087762236595154,-0.9071664810180664,-0.09517672657966614,0.05254456400871277,0.03773599863052368,0.9722772235283582,0.21314871566701463,0.031374684900940725,-0.09088624179784141
1719103266601974000,1.26297412109375,-0.5826237201690674,-0.6864789128303528,-0.5237825512886047,0.09576921910047531,-0.40280047059059143,-0.91026371717453,-0.08438616991043091,0.06797686219215393,0.06765812635421753,0.9727679762072159,0.20983648785557665,0.028927220567995023,-0.09409773010748938
1719103266612028000,1.27302783203125,-0.5816560387611389,-0.7005883455276489,-0.5296176671981812,0.09152637422084808,-0.39701804518699646,-0.9132357835769653,-0.07564196735620499,0.05306968092918396,0.08405792713165283,0.9732148433120031,0.20660862287655726,0.026362463639781182,-0.09731851694403285
1719103266622083000,1.2830830078125,-0.6155940294265747,-0.7304650545120239,-0.5512763857841492,0.0871049016714096,-0.39105626940727234,-0.916235625743866,-0.0773392841219902,0.05014440417289734,0.08133572340011597,0.9736484372438053,0.2032718459576185,0.023722099832379905,-0.10063107673232781
1719103266632137000,1.293136962890625,-0.6340088248252869,-0.7549405694007874,-0.5774641036987305,0.08246621489524841,-0.38476696610450745,-0.9193224310874939,-0.07038125395774841,0.057420164346694946,0.0714372992515564,0.9740778938304582,0.19974570148340595,0.020986798451908248,-0.10408399004276131
1719103266642192000,1.30319189453125,-0.6423375606536865,-0.791737973690033,-0.6034597754478455,0.0775824785232544,-0.3783680200576782,-0.9223982691764832,-0.060568928718566895,0.06106150150299072,0.041279494762420654,0.9744746402978947,0.1961431834662396,0.01813036235563783,-0.10769511011908366
1719103266652246000,1.31324609375,-0.6352251768112183,-0.812134861946106,-0.5956782102584839,0.07238561660051346,-0.3720097541809082,-0.9254021048545837,-0.05044347792863846,0.0565190315246582,0.00548022985458374,0.974833081784295,0.19253558645228386,0.015132433614772824,-0.1113623258857624
1719103266662301200,1.32330126953125,-0.692568838596344,-0.8343309760093689,-0.5939863324165344,0.06694354116916656,-0.36543816328048706,-0.9284253120422363,-0.040194883942604065,0.04092949628829956,-0.026835918426513672,0.975184735087633,0.1887907763283309,0.012057977144889678,-0.11501099724949256
1719103266672354800,1.333354736328125,-0.7177349925041199,-0.8630257248878479,-0.5879037380218506,0.061147384345531464,-0.3584347069263458,-0.9315500855445862,-0.03484123572707176,0.034872084856033325,-0.013380944728851318,0.975545428867216,0.18478765058868032,0.008858722143204517,-0.11868545249507541
1719103266682410000,1.343409912109375,-0.736639142036438,-0.8628185391426086,-0.5687412023544312,0.05511283874511719,-0.35130777955055237,-0.9346365332603455,-0.032026294618844986,0.017399698495864868,0.001607358455657959,0.9758905303765358,0.18069436248069196,0.005593293576839204,-0.1222947828767164
1719103266692463900,1.3534638671875,-0.7577694654464722,-0.8652499914169312,-0.5469090938568115,0.048926834017038345,-0.34394943714141846,-0.9377126097679138,-0.038108356297016144,0.0011607706546783447,0.02256673574447632,0.976233834032767,0.17646049545532166,0.0023211473274985894,-0.12579265985208013
1719103266702519000,1.36351904296875,-0.801494300365448,-0.8531933426856995,-0.5424911975860596,0.042713940143585205,-0.33636561036109924,-0.9407622814178467,-0.0473221018910408,-0.016158193349838257,0.03464961051940918,0.9765675251929018,0.17209890898686112,-0.0009023108016615572,-0.12921719255022507
1719103266712573000,1.373572998046875,-0.8896017670631409,-0.8440690636634827,-0.5326935648918152,0.03650250658392906,-0.32815492153167725,-0.9439184069633484,-0.04544415324926376,-0.016251206398010254,0.02230280637741089,0.9769230923165808,0.1674051919812627,-0.004038412068498866,-0.13259129242974768
1719103266722627800,1.3836279296875,-0.9701269865036011,-0.8330276012420654,-0.5408082008361816,0.030298011377453804,-0.3191072344779968,-0.9472342133522034,-0.035058751702308655,-0.008025944232940674,0.01388460397720337,0.9773106855434823,0.16227413855142914,-0.007071714840808978,-0.13594444577939227
1719103266732682000,1.393681884765625,-1.0127511024475098,-0.8319903016090393,-0.5740383267402649,0.02409559115767479,-0.30947086215019226,-0.9506036043167114,-0.032060690224170685,-0.01105526089668274,0.008953213691711426,0.9776864963358206,0.1568357031554465,-0.010038245041675635,-0.13939461169168874
1719103266742737200,1.403737060546875,-1.0628032684326172,-0.8066660761833191,-0.5845983028411865,0.018031489104032516,-0.29940932989120483,-0.9539543390274048,-0.03625049442052841,-0.008604556322097778,0.01585930585861206,0.9780289099523518,0.15118505973319268,-0.012880156052943353,-0.1429566473609423
1719103266752791000,1.413791015625,-1.049990177154541,-0.7847974896430969,-0.5859655141830444,0.012084845453500748,-0.28912514448165894,-0.9572150111198425,-0.041412241756916046,0.008958518505096436,0.02552860975265503,0.9783393695692283,0.14542746858737055,-0.015599282102799487,-0.1464909942697186
1719103266762846000,1.423845947265625,-1.0084084272384644,-0.7320360541343689,-0.5980541110038757,0.006491533946245909,-0.2791542112827301,-0.9602243304252625,-0.055563803762197495,0.01815265417098999,0.023945093154907227,0.9785711128187687,0.13985449780880074,-0.018125863827824062,-0.15003603120447817
1719103266772899800,1.43389990234375,-0.9953042268753052,-0.6862552165985107,-0.5947353839874268,0.001323987147770822,-0.26948267221450806,-0.9630043506622314,-0.06850843876600266,0.009518682956695557,0.015006303787231445,0.9787390178420499,0.13446555518069422,-0.020416886967102126,-0.1535322369966413
1719103266782955000,1.443955078125,-0.984046220779419,-0.6691572070121765,-0.5978252291679382,-0.0036500918213278055,-0.2598634660243988,-0.9656384587287903,-0.07082806527614594,-0.008736997842788696,0.029801666736602783,0.9788571140043384,0.1291163349685329,-0.02257736052785257,-0.15702865236922606
1719103266793009200,1.454009033203125,-1.0016001462936401,-0.6345872282981873,-0.6019219160079956,-0.008469573222100735,-0.25026780366897583,-0.9681395888328552,-0.06826688349246979,-0.023291736841201782,0.0333099365234375,0.9789307504492288,0.12378968866254654,-0.02462339766658424,-0.1605126774497535
1719103266803063800,1.464063720703125,-1.012592077255249,-0.616219162940979,-0.5858025550842285,-0.013080677948892117,-0.2404714673757553,-0.970568060874939,-0.0628928393125534,-0.01546420156955719,0.033846259117126465,0.9789822554253883,0.11837844451746758,-0.026504912254355514,-0.163944541892639
1719103266813118000,1.474117919921875,-0.9728248119354248,-0.5794329047203064,-0.5534627437591553,-0.017548853531479836,-0.2308577001094818,-0.972829282283783,-0.05410642549395561,-0.010307461023330688,0.05951446294784546,0.9790020934803747,0.11307379454433977,-0.028278775218160575,-0.16724081724947867
1719103266823173000,1.484173095703125,-0.9275220632553101,-0.540617048740387,-0.533985435962677,-0.021813208237290382,-0.22165897488594055,-0.9748802185058594,-0.04531020671129227,-0.0048882365226745605,0.07278066873550415,0.9789872190805106,0.10799899297423401,-0.029934873061393016,-0.17036505357448226
1719103266833227000,1.49422705078125,-0.8762586116790771,-0.49477341771125793,-0.5144445300102234,-0.025768723338842392,-0.2129264920949936,-0.9767283797264099,-0.044925253838300705,0.011144265532493591,0.09013170003890991,0.9789321879084624,0.10318723671959323,-0.031435882226606336,-0.17336674878155803
1719103266843282000,1.504281982421875,-0.8469260334968567,-0.4123016893863678,-0.47378653287887573,-0.0291556678712368,-0.20461809635162354,-0.9784075617790222,-0.0521279014647007,0.010480538010597229,0.09680056571960449,0.9788594437020438,0.09864287878329861,-0.03264650973215804,-0.17617602886066452
1719103266853335800,1.514335693359375,-0.8693692684173584,-0.359119176864624,-0.43103963136672974,-0.032063331454992294,-0.19636741280555725,-0.9800060391426086,-0.062464866787195206,-0.012800037860870361,0.09722405672073364,0.9788060600390684,0.09417910194908413,-0.03357516040915516,-0.17872228427495687
1719103266863391000,1.524390869140625,-0.9006704688072205,-0.3239542543888092,-0.4339115619659424,-0.034619007259607315,-0.1878061294555664,-0.9815958142280579,-0.05293592810630798,-0.0316610187292099,0.07386571168899536,0.9787660167768188,0.08959802147614622,-0.0342677425026572,-0.18114906014711618
1719103266873445000,1.534445068359375,-0.9261074662208557,-0.2958086431026459,-0.43124356865882874,-0.036864545196294785,-0.17895162105560303,-0.9831669926643372,-0.03620980307459831,-0.02833901345729828,0.04774218797683716,0.978712689754012,0.08490172016642113,-0.034759243470329194,-0.18358921728483832
1719103266883499800,1.544499755859375,-0.9179523587226868,-0.2743251919746399,-0.4000890851020813,-0.03898147493600845,-0.16991829872131348,-0.9846868515014648,-0.007878270000219345,0.008953332901000977,0.021582603454589844,0.9786603285783007,0.0801359263816778,-0.035139739942494704,-0.18592324257499612
1719103266893554000,1.554553955078125,-0.8104063272476196,-0.2405235320329666,-0.3900371789932251,-0.04087027162313461,-0.16147710382938385,-0.9860298037528992,0.009437162429094315,0.03711797297000885,-0.00260239839553833,0.9785837711164569,0.07569392631697852,-0.035433446273663786,-0.18811891388257707
1719103266903609000,1.564609130859375,-0.7332707643508911,-0.21303412318229675,-0.36584797501564026,-0.0424845889210701,-0.1540280133485794,-0.9871526956558228,0.0024302639067173004,0.0269528329372406,-0.010650038719177246,0.9784661582086587,0.07177615350616126,-0.03566286575421131,-0.19021098950692172
1719103266913663700,1.574663818359375,-0.6741592288017273,-0.21458621323108673,-0.354722797870636,-0.044051382690668106,-0.14720498025417328,-0.9881245493888855,-0.004303719848394394,0.0035740137100219727,-0.0054972171783447266,0.9783286424080133,0.06817922115360404,-0.035906924877779946,-0.1921858523627118
1719103266923718000,1.5847177734375,-0.6238939166069031,-0.2098282128572464,-0.3723292350769043,-0.04561571031808853,-0.14094498753547668,-0.9889659881591797,-0.007866352796554565,-0.02426190674304962,-0.017992019653320312,0.9781543590144226,0.06486250988715303,-0.036192028241831285,-0.19415737982584116
1719103266933773000,1.59477294921875,-0.5911687612533569,-0.22055861353874207,-0.3778177499771118,-0.04724808409810066,-0.13508401811122894,-0.9897069931030273,-0.007424160838127136,-0.03822530806064606,-0.043877601623535156,0.9779426206980555,0.06173564698806208,-0.03654057862895534,-0.19616780989543445
1719103266943827000,1.604826904296875,-0.5099306106567383,-0.2480328530073166,-0.4033319056034088,-0.04906110092997551,-0.12976329028606415,-0.9903305172920227,0.009311947971582413,-0.021985352039337158,-0.0660659670829773,0.9776834406735355,0.05885523091375577,-0.037024477623363986,-0.19824351564595724
1719103266953881900,1.6148818359375,-0.4165666401386261,-0.2741195857524872,-0.4441661834716797,-0.05108221620321274,-0.12533195316791534,-0.9907989501953125,0.03565557673573494,0.018673032522201538,-0.091644287109375,0.9773449227697374,0.05638492854230091,-0.03769983450606222,-0.20049034858358802
1719103266963935700,1.624935791015625,-0.29395896196365356,-0.26345309615135193,-0.46898898482322693,-0.05319305509328842,-0.12204987555742264,-0.9910975098609924,0.056488946080207825,0.06420382112264633,-0.09801381826400757,0.9769282905828107,0.05446353559964998,-0.038535112820362656,-0.20287911365114195
1719103266973991000,1.634990966796875,-0.20912012457847595,-0.2712963819503784,-0.47981569170951843,-0.055254481732845306,-0.11983764916658401,-0.9912546873092651,0.061113856732845306,0.08115663379430771,-0.08691602945327759,0.9764530155853413,0.05306680988310042,-0.03945330544008797,-0.20534600550117613
1719103266984045000,1.645045166015625,-0.19351933896541595,-0.28249549865722656,-0.4554682672023773,-0.05746176093816757,-0.11813084036111832,-0.991334080696106,0.053753871470689774,0.058133289217948914,-0.04118239879608154,0.9759625849556578,0.051901388649256475,-0.04048711975761614,-0.2077600219791913
1719103266994100000,1.655099853515625,-0.2088465392589569,-0.31699222326278687,-0.4212239384651184,-0.05991365760564804,-0.11639369279146194,-0.9913944005966187,0.04711152985692024,-0.0013431087136268616,-0.0030818581581115723,0.9754953745833624,0.05069753258204891,-0.04162401505325468,-0.21001428302657013
1719103267004153900,1.66515380859375,-0.2862018048763275,-0.3606629967689514,-0.4218178391456604,-0.06281813234090805,-0.1142469123005867,-0.9914643168449402,0.03733595460653305,-0.06296864151954651,-0.002630472183227539,0.9750370938715348,0.04924220147839933,-0.042930625933597436,-0.21221406828012496
1719103267014209000,1.675208984375,-0.435589075088501,-0.39266353845596313,-0.444906085729599,-0.06608885526657104,-0.11092211306095123,-0.9916292428970337,0.037432849407196045,-0.05930493026971817,-0.03312051296234131,0.9745762398550744,0.047159951167685045,-0.044286786831228823,-0.2145129604500806
1719103267024263000,1.685262939453125,-0.4948002099990845,-0.3899836242198944,-0.45528656244277954,-0.06951824575662613,-0.10651548206806183,-0.9918778538703918,0.04342570900917053,-0.0050567686557769775,-0.023853957653045654,0.9741068173516738,0.04451953740912965,-0.045597005857671805,-0.21692119578511534
1719103267034318000,1.695318115234375,-0.4739908277988434,-0.3453303873538971,-0.4537161588668823,-0.07271803170442581,-0.10200861841440201,-0.9921221137046814,0.03663099557161331,0.0186498761177063,-0.0008130073547363281,0.9736283400673958,0.041849195573172494,-0.04677155010602545,-0.219337338151427
1719103267044372000,1.7053720703125,-0.4169435203075409,-0.32427704334259033,-0.4490644335746765,-0.07560832798480988,-0.09790027141571045,-0.9923199415206909,0.013032026588916779,0.005294688045978546,0.028529047966003418,0.973141210295928,0.0394050754188211,-0.04782526778700065,-0.22171195856817907
1719103267054427000,1.715427001953125,-0.405580073595047,-0.2970406115055084,-0.4135822057723999,-0.07827480882406235,-0.09414675086736679,-0.9924764037132263,0.0018893107771873474,-0.01628110557794571,0.06121724843978882,0.9726627311964944,0.03716045086175114,-0.048794374741003205,-0.22397639267570693
1719103267064481000,1.72548095703125,-0.39515966176986694,-0.30003881454467773,-0.3930945098400116,-0.08087030053138733,-0.09048137068748474,-0.9926092624664307,0.007353447377681732,-0.03691425174474716,0.09432435035705566,0.9722047897940873,0.03496994214529533,-0.04972403757792516,-0.22610271239319307
1719103267074536000,1.735535888671875,-0.35423901677131653,-0.32691648602485657,-0.3808494210243225,-0.08364112675189972,-0.08703173696994781,-0.9926880598068237,0.01068885624408722,-0.055546365678310394,0.110012948513031,0.9717483709400331,0.03286556145845967,-0.050752450075880744,-0.2281429524875932
1719103267084590000,1.745590087890625,-0.2908656597137451,-0.330207884311676,-0.3694268465042114,-0.08660507202148438,-0.0841333419084549,-0.9926838278770447,0.011928550899028778,-0.03877618908882141,0.07903331518173218,0.9712852447192778,0.03100816913675331,-0.05192869521724107,-0.2301019612287356
1719103267094645000,1.75564501953125,-0.16376037895679474,-0.3222130835056305,-0.3613942265510559,-0.08956930786371231,-0.08214150369167328,-0.9925875663757324,0.018600672483444214,0.016620270907878876,0.05258512496948242,0.970808133684776,0.029591324426885522,-0.053203020106686816,-0.23200287003728629
1719103267104699000,1.765698974609375,-0.013787386938929558,-0.3168622553348541,-0.3662523627281189,-0.09244737774133682,-0.08161745965480804,-0.9923669099807739,0.033578962087631226,0.05358707904815674,0.039852261543273926,0.97030873970728,0.02889810049279864,-0.05460263798034552,-0.2338467746032028
1719103267114754000,1.775754150390625,0.06332891434431076,-0.31855443120002747,-0.3640833795070648,-0.09529148042201996,-0.08221569657325745,-0.992048442363739,0.03668246418237686,0.05639784038066864,0.044370830059051514,0.9697853804732319,0.028751413464199984,-0.05611715338910687,-0.23567034241261242
1719103267124808200,1.78580810546875,0.11150790005922318,-0.32063916325569153,-0.3445698618888855,-0.09816969186067581,-0.08345606178045273,-0.9916641712188721,0.031916022300720215,0.038641005754470825,0.08179783821105957,0.9692601435036888,0.028912236534934722,-0.057723518333094526,-0.2374171231148313
1719103267134862800,1.79586279296875,0.10539501160383224,-0.3286510109901428,-0.3154815137386322,-0.10112365335226059,-0.08489487320184708,-0.9912450909614563,0.02157958596944809,0.00007127970457077026,0.11600100994110107,0.9687523128570085,0.029162255087057005,-0.059388617823440175,-0.2390430003124166
1719103267144917000,1.8059169921875,0.13503679633140564,-0.34890487790107727,-0.2789858281612396,-0.1042613536119461,-0.08637461066246033,-0.9907920956611633,0.010557129979133606,-0.014592774212360382,0.1353386640548706,0.9682756797191783,0.02941543531790589,-0.06114474133542503,-0.2404958429580422
1719103267154972000,1.815971923828125,0.18093347549438477,-0.3648875653743744,-0.2684515118598938,-0.10760451853275299,-0.08825113624334335,-0.9902691841125488,0.019713886082172394,0.00522807240486145,0.09293031692504883,0.967812526616213,0.02984039232109067,-0.06304738270094296,-0.2418127738127922
1719103267165026000,1.826026123046875,0.16819584369659424,-0.3734520375728607,-0.3078814744949341,-0.1110164001584053,-0.09032382816076279,-0.989705502986908,0.05135452747344971,0.036628156900405884,0.03340667486190796,0.9673198201441052,0.030342743398664846,-0.065012085146653,-0.24319751621723995
1719103267175081000,1.8360810546875,0.13241729140281677,-0.3871002197265625,-0.3484499454498291,-0.11449705064296722,-0.09222564101219177,-0.989133358001709,0.07601437717676163,0.041795358061790466,0.03400951623916626,0.9667647197363124,0.030732128615406935,-0.06699882738471225,-0.24481151715683272
1719103267185134800,1.846134765625,0.09156172722578049,-0.38308069109916687,-0.3371301591396332,-0.11800191551446915,-0.09374935179948807,-0.9885780811309814,0.07217976450920105,0.023513153195381165,0.07019734382629395,0.9661894153487637,0.03092209375685357,-0.06895496385418254,-0.2465098062034472
1719103267195190000,1.85618994140625,0.08745606243610382,-0.35287511348724365,-0.3069629967212677,-0.12136724591255188,-0.0949821025133133,-0.9880528450012207,0.05064275115728378,0.01601787656545639,0.1113133430480957,0.9656455116154733,0.03098884661615793,-0.07080450138404366,-0.2481030044625197
1719103267205243600,1.86624365234375,0.1711040884256363,-0.3181387186050415,-0.2784799635410309,-0.12439507246017456,-0.09652344137430191,-0.9875267744064331,0.025441817939281464,0.026729747653007507,0.1270378828048706,0.96514379757205,0.03125483076106759,-0.07252419298808975,-0.24952106256798665
1719103267215298600,1.876298583984375,0.37895452976226807,-0.24833644926548004,-0.25654157996177673,-0.12703761458396912,-0.09953352063894272,-0.9868913292884827,0.012016847729682922,0.04451034218072891,0.09542709589004517,0.9646428263360551,0.032287085371515575,-0.07424198610741713,-0.2508183752300101
1719103267225352700,1.886352783203125,0.541332483291626,-0.22489556670188904,-0.26675480604171753,-0.12907792627811432,-0.10456685721874237,-0.9861057996749878,0.023334503173828125,0.06654196232557297,-0.019646763801574707,0.964148135634246,0.03438824308934147,-0.07592460250442015,-0.2519350627910472
1719103267235407600,1.89640771484375,0.6024435758590698,-0.21904461085796356,-0.2744506001472473,-0.1309734284877777,-0.11062036454677582,-0.985194981098175,0.06592519581317902,0.10190760344266891,-0.08809298276901245,0.9636108453646068,0.03699768787718873,-0.07767684905014777,-0.2530845557525101
1719103267245461800,1.906461669921875,0.6127734184265137,-0.1717338263988495,-0.23776476085186005,-0.132606640458107,-0.11705666035413742,-0.9842323064804077,0.122963085770607,0.10018043965101242,-0.045583367347717285,0.9630865058332333,0.0398323864710811,-0.07935509256865343,-0.2541272985325169
1719103267255516700,1.9165166015625,0.4232146441936493,-0.1637139767408371,-0.20106181502342224,-0.13394027948379517,-0.12260833382606506,-0.9833754301071167,0.14587263762950897,0.05795685946941376,-0.0094834566116333,0.9626323483346948,0.04228725910665068,-0.08077178491266461,-0.25500344881578235
1719103267265570600,1.926570556640625,0.18601170182228088,-0.10438194870948792,-0.2707282602787018,-0.1350427120923996,-0.1258811354637146,-0.9828109741210938,0.1472344696521759,0.03310771286487579,0.02411651611328125,0.9622240106861607,0.043653361783515386,-0.08178568275808056,-0.2559892591401815
1719103267275625700,1.936625732421875,0.08311652392148972,-0.04903560131788254,-0.4985547661781311,-0.13502797484397888,-0.12766851484775543,-0.9825823903083801,0.13675221800804138,0.021940380334854126,-0.009345710277557373,0.9616717008364891,0.04436650915686501,-0.08209998019661273,-0.2578349455013217
1719103267285679900,1.946679931640625,0.01291799359023571,0.047021422535181046,-0.4330463409423828,-0.13479621708393097,-0.12857981026172638,-0.9824954271316528,0.12825019657611847,0.005075171589851379,-0.04745757579803467,0.9610324018651465,0.044643548934522936,-0.08221467600005834,-0.2601239521015529
1719103267295734500,1.956734619140625,0.05852697044610977,0.06572506576776505,-0.4872874319553375,-0.13339850306510925,-0.12980389595031738,-0.9825252294540405,0.09670111536979675,-0.030077680945396423,-0.12051737308502197,0.9604574279730848,0.04523778253324435,-0.08179815582550487,-0.26226733122835394
1719103267305788700,1.96678857421875,-0.07255381345748901,0.023777885362505913,-0.49161428213119507,-0.13289332389831543,-0.13002969324588776,-0.9825637936592102,0.10141442716121674,-0.05623432993888855,-0.1726180911064148,0.9598105498752901,0.045210237000153856,-0.08169534252289253,-0.26466115085206376
1719103267315843800,1.97684375,0.21827606856822968,0.5741283893585205,-0.5121678113937378,-0.12815715372562408,-0.1308748573064804,-0.9830806255340576,0.09203958511352539,-0.0440518856048584,-0.3088505268096924,0.9592649604439083,0.046044931809278086,-0.07962130112102532,-0.26711621235899213
1719103267325897700,1.986897705078125,-0.4544019103050232,-0.4687599241733551,-0.5617385506629944,-0.12781234085559845,-0.1309012621641159,-0.9831219911575317,0.25142377614974976,-0.0336495041847229,-0.288499653339386,0.9586156495203862,0.04590827161401231,-0.07957028578142082,-0.2694754662700371
1719103267335952600,1.99695263671875,-0.26338130235671997,-0.13661710917949677,-0.4462500810623169,-0.1300743818283081,-0.1267758011817932,-0.9833659529685974,0.08213125169277191,-0.0738925188779831,0.07810777425765991,0.9578642679022442,0.043364257750428556,-0.08022827748508175,-0.2723581928299807
1719103267346006500,2.007006591796875,0.19836661219596863,-0.10319551080465317,-0.24867893755435944,-0.13067996501922607,-0.12757644057273865,-0.9831820726394653,-0.033702969551086426,-0.18062058091163635,-0.12106597423553467,0.9573458535272998,0.04352980162994217,-0.080710081082307,-0.2740071867648799
1719103267356061700,2.017061767578125,0.17295508086681366,-0.2213064283132553,-0.2652681767940521,-0.13216865062713623,-0.12957555055618286,-0.9827215671539307,0.08045659959316254,-0.03653162717819214,-0.10416197776794434,0.9568914928544706,0.04419212533978854,-0.08176971322075216,-0.27517162749417845
1719103267366115800,2.02711572265625,0.5399810671806335,-0.22689400613307953,-0.22347092628479004,-0.13412438333034515,-0.13353681564331055,-0.9819259643554688,0.09051474928855896,0.008887767791748047,-0.07845306396484375,0.9563659465926965,0.04574085394888523,-0.08333545728318999,-0.27627386729984593
1719103267376170800,2.037170654296875,0.6011609435081482,-0.262805700302124,-0.13570816814899445,-0.13622306287288666,-0.13956928253173828,-0.9807974696159363,0.04891228675842285,-0.09027382731437683,-0.13938069343566895,0.9558727842025653,0.04830495310410683,-0.08525193478398613,-0.2769585565933952
1719103267386224600,2.047224609375,0.5759626626968384,-0.301444947719574,-0.0403643473982811,-0.13890822231769562,-0.14551907777786255,-0.9795553684234619,0.013709843158721924,-0.11499421298503876,-0.10803008079528809,0.955480261316904,0.05078734849695683,-0.08742404107609338,-0.2771918176818636
1719103267396279800,2.05727978515625,0.4689073860645294,-0.2806065082550049,0.01594419777393341,-0.1417638212442398,-0.15073180198669434,-0.9783572554588318,0.004663601517677307,-0.12061524391174316,-0.07611662149429321,0.9551960804336476,0.052921194880092164,-0.08955843814462476,-0.2770904072509868
1719103267406333700,2.067333740234375,0.37515559792518616,-0.2601267993450165,0.08549877256155014,-0.14450524747371674,-0.1547650247812271,-0.977325975894928,0.011372298002243042,-0.1109820306301117,-0.03527778387069702,0.9550357636918128,0.05452806544458983,-0.09145333408105723,-0.27671225906440566
1719103267416388900,2.077388916015625,0.2912410497665405,-0.21671247482299805,0.16481436789035797,-0.14714793860912323,-0.15812905132770538,-0.9763926863670349,0.01363353431224823,-0.09422078728675842,-0.009874403476715088,0.9549917686258298,0.055857387055608845,-0.09318586918381672,-0.2760201983000843
1719103267426442500,2.0874423828125,0.47572195529937744,-0.16029074788093567,0.2806997001171112,-0.14946281909942627,-0.16199059784412384,-0.9754075407981873,0.01079094409942627,-0.07830481231212616,-0.023585379123687744,0.9550949873395977,0.05753184888758169,-0.09479612699835806,-0.2747677252269469
1719103267436497700,2.09749755859375,0.49430036544799805,-0.12438122183084488,0.4207802414894104,-0.15138044953346252,-0.1661950796842575,-0.974403977394104,0.007200136780738831,-0.0803564190864563,-0.024146437644958496,0.9553722605142794,0.05949584535048141,-0.09621977545723338,-0.2728842525378579
1719103267446551800,2.1075517578125,0.6688122749328613,-0.014846472069621086,0.48277249932289124,-0.15287718176841736,-0.17088323831558228,-0.9733588695526123,0.012740463018417358,-0.07092277705669403,0.007904767990112305,0.9557891352880558,0.061814292405303596,-0.09746569114032766,-0.2704561261619268
1719103267456606700,2.117606689453125,0.3501444160938263,-0.05269638076424599,0.6101487278938293,-0.15409107506275177,-0.17541390657424927,-0.9723609685897827,0.00220508873462677,-0.10119739174842834,0.00597614049911499,0.9563295302655584,0.06414515356675562,-0.09851345997392184,-0.2676085966126368
1719103267466660900,2.127660888671875,0.4654662013053894,0.0682619959115982,0.7119757533073425,-0.15507261455059052,-0.17819660902023315,-0.9716987609863281,0.006650373339653015,-0.07854776084423065,0.09578323364257812,0.9570998365139344,0.06571974161668578,-0.0991541411694368,-0.2642143958600322
1719103267476715800,2.1377158203125,0.4258321225643158,0.16117170453071594,0.8220095038414001,-0.15534767508506775,-0.18154333531856537,-0.9710350632667542,0.003904178738594055,-0.11398889124393463,0.04180532693862915,0.9580035486029129,0.06772329600966831,-0.09947873285040625,-0.26028182678694584
1719103267486769700,2.147769775390625,0.32849863171577454,0.22810359299182892,0.9658337831497192,-0.15504072606563568,-0.1837262362241745,-0.9706735014915466,-0.012012511491775513,-0.0886126309633255,0.07277005910873413,0.959131253168439,0.06929971638183216,-0.09930155224907296,-0.2557421842292119
1719103272886058200,7.547058349609375,-3.256618022918701,4.08323860168457,4.805939197540283,0.7700490355491638,-0.4421496093273163,0.4599221348762512,1.376481056213379,1.0427660942077637,-0.18544697761535645,0.4886151134114299,0.14778961527206685,0.8414982495043094,0.17690180681637702
1719103272896113400,7.557113525390625,-3.995220899581909,3.3104238510131836,5.0926408767700195,0.7302077412605286,-0.49544593691825867,0.4704569876194,1.3772903680801392,0.9607627391815186,-0.2984294295310974,0.47125546428831083,0.15600207214572015,0.8431440226055228,0.20661492076919288
1719103272906167300,7.567167236328125,-3.1026835441589355,2.612679958343506,5.145228862762451,0.6872977018356323,-0.5497739315032959,0.47473207116127014,1.3587075471878052,0.5719449520111084,-0.18763792514801025,0.454611969549952,0.16628607252846156,0.8424458274505265,0.23656279338619696
1719103272916222200,7.57722216796875,-1.9917325973510742,2.38076114654541,4.629641056060791,0.6483248472213745,-0.5950266122817993,0.4749928414821625,1.3764249086380005,0.5954538583755493,-0.20660603046417236,0.4411397272409707,0.17819310472555272,0.8400854980400526,0.2605749729150954
1719103272926277400,7.58727734375,-1.6501408815383911,2.184962272644043,3.9511194229125977,0.6103935241699219,-0.628768265247345,0.4817367494106293,1.3321571350097656,1.0317070484161377,-0.38630831241607666,0.42610424351673437,0.1889410905622746,0.8397437953754673,0.2785081886129705
1719103272936331300,7.597331298828125,-2.123544931411743,1.562690258026123,4.486078262329102,0.5745364427566528,-0.663332462310791,0.4794769883155823,1.1338071823120117,1.3469719886779785,-0.2384185791015625,0.4142614687071774,0.19928159249486713,0.8366751673060971,0.29773986323747254
1719103272946386400,7.607386474609375,-1.2160415649414062,1.745887041091919,3.845435619354248,0.5368442535400391,-0.6963101029396057,0.4763934910297394,1.3017635345458984,1.2425594329833984,-0.22065609693527222,0.40282131245327524,0.21221234508432746,0.8325639106380711,0.31549697065929877
1719103272956440300,7.6174404296875,-1.6458395719528198,1.8316067457199097,3.0288233757019043,0.5034823417663574,-0.7194777131080627,0.47839054465293884,1.006725788116455,0.9508619904518127,-0.7010315656661987,0.3900655101648419,0.21986234130887944,0.8311773708390997,0.3296265574686489
1719103272966495200,7.6274951171875,-1.4526031017303467,0.9339845180511475,3.2448678016662598,0.47342145442962646,-0.7432343363761902,0.4727315902709961,0.9769876003265381,1.311700463294983,-0.4504994750022888,0.3810727431631644,0.2281816833987506,0.827223619541465,0.34411897760494364
1719103272976550400,7.63755029296875,-0.9289077520370483,1.2727946043014526,2.2851381301879883,0.4474395215511322,-0.7610417604446411,0.4696950912475586,1.123345971107483,1.2288151979446411,-0.5952138900756836,0.37273847735526855,0.2351601131406914,0.8243465692817556,0.3552724881956304
1719103272986604300,7.647604248046875,-0.8536178469657898,1.2304338216781616,2.0504860877990723,0.4245874583721161,-0.7745003700256348,0.46890828013420105,0.7764471769332886,1.0142158269882202,-0.9367427229881287,0.36449371193180946,0.24033015155294046,0.8226150773670952,0.36426680751732654
1719103272996659200,7.6576591796875,-0.4909781515598297,1.3519937992095947,1.9102758169174194,0.40267521142959595,-0.7861279845237732,0.46888697147369385,0.9063152074813843,1.21204674243927,-0.9537808895111084,0.35626593335169304,0.24503619941853655,0.8212190624109245,0.3723317785472873
1719103273006713300,7.66771337890625,-0.7772752046585083,0.08206222951412201,2.16750431060791,0.38297557830810547,-0.7960033416748047,0.4687301814556122,1.023564338684082,0.9580365419387817,-1.1753648519515991,0.34948498795613103,0.2505644150236948,0.8195014082911511,0.37880737920402013
1719103273016768300,7.677768310546875,-1.9236992597579956,-2.1671581268310547,1.2965939044952393,0.3727489113807678,-0.8100050091743469,0.45271432399749756,1.2587056159973145,0.4654768109321594,-1.04959237575531,0.35205496998849944,0.2575356615639629,0.8124238685089717,0.3869110844591415
1719103273026823200,7.6878232421875,-2.4438397884368896,-3.328512668609619,1.3578534126281738,0.3748345673084259,-0.8239139914512634,0.4250469505786896,1.346097469329834,0.05612224340438843,-0.9259471893310547,0.36370064683492404,0.26435390289538163,0.8016486088297824,0.39395231439330947
1719103273036877300,7.697877197265625,-3.3370003700256348,-3.908622980117798,0.8504517078399658,0.38250797986984253,-0.8397168517112732,0.38543933629989624,1.1645807027816772,0.003764033317565918,-1.188204288482666,0.38132642523582394,0.27061806223462287,0.7870740356601822,0.4023313927778933
1719103273046932200,7.70793212890625,-3.7000157833099365,-2.531313180923462,0.010726265609264374,0.39002999663352966,-0.854647696018219,0.3427160084247589,0.6741180419921875,0.29741185903549194,-1.5343053340911865,0.39713766272335144,0.2710592228863188,0.7732301710429059,0.4134293235811849
1719103273056986400,7.717986328125,-3.3322904109954834,-2.493272304534912,-0.8734813332557678,0.403093159198761,-0.863944947719574,0.3018530607223511,0.3142531216144562,0.030296146869659424,-1.680118441581726,0.4132482339375863,0.26758764560062187,0.7611329634122309,0.4222552149916078
1719103273067041300,7.728041259765625,-3.874368190765381,-3.2012858390808105,-0.39193594455718994,0.4168931543827057,-0.8713734149932861,0.25866714119911194,0.360526978969574,0.3160907030105591,-1.5426331758499146,0.4304697589237205,0.2638650442242196,0.7481368887916804,0.4305372441122743
1719103273077096200,7.73809619140625,-3.5308454036712646,-3.691523551940918,-0.07735618948936462,0.4271174967288971,-0.8791111707687378,0.2115047425031662,0.6272801160812378,1.0617283582687378,-1.4228847026824951,0.44863719202839886,0.2622401918846579,0.7327908678913451,0.4392861474583513
1719103273087150300,7.748150390625,-3.0509042739868164,-4.498250961303711,-0.40697455406188965,0.43668332695961,-0.8845071196556091,0.16417960822582245,0.8218158483505249,1.2406930923461914,-1.5418956279754639,0.46849719661291694,0.26306009877402053,0.7161628211863095,0.4454442836178023
1719103273097205500,7.75820556640625,-2.4392433166503906,-5.091183662414551,-1.0053898096084595,0.44961482286453247,-0.8853408098220825,0.11839848011732101,0.9482733607292175,1.3025771379470825,-1.5775353908538818,0.49068155722060824,0.2646663488257088,0.6993932823444164,0.44724979480673427
1719103273107259400,7.76825927734375,-1.8669575452804565,-5.780261993408203,-1.5443867444992065,0.4663136601448059,-0.8814877867698669,0.07436804473400116,0.9145151376724243,1.3415709733963013,-1.4564785957336426,0.5153682886027399,0.2670694911517844,0.682537843922966,0.4440849000240527
1719103273117314300,7.778314208984375,-1.3056491613388062,-6.264401435852051,-1.9078620672225952,0.48486828804016113,-0.8740242719650269,0.03137535974383354,0.8227031230926514,1.4109352827072144,-1.2724031209945679,0.5418272853467675,0.27029281597303256,0.6653040461313966,0.43673283277012814
1719103273127369500,7.788369384765625,-0.5365765690803528,-6.69461727142334,-2.2147765159606934,0.5035920739173889,-0.8638937473297119,-0.00909450463950634,0.7355895042419434,1.4950125217437744,-1.134612798690796,0.569098496295886,0.27508310736952957,0.6479058816588048,0.42505786812958435
1719103273137423400,7.79842333984375,0.3837032616138458,-7.076186180114746,-2.4582386016845703,0.5218846797943115,-0.8518044352531433,-0.04544975981116295,0.6548121571540833,1.5093514919281006,-1.0187287330627441,0.596287189430583,0.28173738211265464,0.6307924910080288,0.4088600255604676
1719103273147478300,7.808478271484375,1.2928286790847778,-7.525652885437012,-2.621403694152832,0.5392715334892273,-0.8385599851608276,-0.07748180627822876,0.5488632321357727,1.4672678709030151,-0.7857536673545837,0.6231710530776308,0.2908910809211212,0.6137112321207712,0.3878128326626438
1719103273157532200,7.8185322265625,2.1819968223571777,-7.956108093261719,-2.6939589977264404,0.5543206930160522,-0.8255585432052612,-0.10574367642402649,0.46376097202301025,1.4303711652755737,-0.5901638865470886,0.6491309042730768,0.3028566949411961,0.5961593620679729,0.36263061174862693
1719103273167587300,7.82858740234375,3.2136964797973633,-8.170995712280273,-2.807623863220215,0.5677197575569153,-0.8129250407218933,-0.12979674339294434,0.4104601740837097,1.4207589626312256,-0.49988770484924316,0.6738345124755113,0.3175468446961467,0.5781570996358463,0.3329345870242757
1719103273177642200,7.838642333984375,4.145094871520996,-8.434748649597168,-2.835479259490967,0.5792945027351379,-0.801423192024231,-0.14879076182842255,0.43454521894454956,1.426056981086731,-0.35908275842666626,0.696388377260687,0.3350099484558671,0.5597972457610527,0.2990628670659082
1719103273187696000,7.848696044921875,5.120485782623291,-8.584498405456543,-2.8764028549194336,0.5888439416885376,-0.7918208837509155,-0.16211922466754913,0.5752338171005249,1.483578085899353,-0.10808336734771729,0.7160713451222097,0.355478486273809,0.5409024244524748,0.2613456175293162
1719103273197751300,7.858751220703125,6.199921607971191,-8.881366729736328,-2.768165111541748,0.5967742204666138,-0.7843062281608582,-0.16948248445987701,0.7324188947677612,1.517094373703003,0.22243046760559082,0.7324080085983247,0.3790143525207104,0.5211591653919433,0.2198176222416396
1719103273207805400,7.868805419921875,7.2496819496154785,-9.077945709228516,-2.5622663497924805,0.6023451685905457,-0.7797214388847351,-0.1709231734275818,0.8963883519172668,1.5285465717315674,0.5632571578025818,0.7448913510269386,0.4060412089806259,0.4996688408922797,0.1749241272207058
1719103273217860000,7.878860107421875,8.378979682922363,-9.358129501342773,-2.1990814208984375,0.6054525971412659,-0.7784146666526794,-0.16582408547401428,1.0621346235275269,1.5522184371948242,0.8321906924247742,0.7528026601551356,0.43654179761102413,0.47594034846497996,0.12727959129232336
1719103273227915300,7.888915283203125,9.633859634399414,-9.789891242980957,-1.5650990009307861,0.6049458384513855,-0.7812948822975159,-0.15368452668190002,1.1885111331939697,1.5218496322631836,1.1124401092529297,0.7555531648980811,0.4711186435352514,0.44855875556179925,0.07734158867534634
1719103273237969400,7.898969482421875,10.781841278076172,-10.399974822998047,-0.824950635433197,0.5997334718704224,-0.7889215350151062,-0.1338748335838318,1.2668282985687256,1.401500940322876,1.346170425415039,0.7525109785376303,0.509943197940955,0.41595735285591423,0.02577884113314409
1719103273248024300,7.9090244140625,11.969372749328613,-10.979475021362305,-0.03173837065696716,0.5900903940200806,-0.8001378178596497,-0.1075759008526802,1.2317173480987549,1.2551398277282715,1.5190140008926392,0.7436728634912434,0.5517247685566412,0.37657911453331117,-0.02717575937333742
1719103273258078500,7.919078369140625,12.828696250915527,-10.960866928100586,1.0486005544662476,0.576285183429718,-0.8141624331474304,-0.07095800340175629,1.1161282062530518,1.1469107866287231,1.3881882429122925,0.7274604292755679,0.5956729553391361,0.3312019455912883,-0.07924863327708186
1719103273268133400,7.92913330078125,13.310111999511719,-10.712406158447266,2.4749889373779297,0.5564130544662476,-0.8305369019508362,-0.02475353702902794,0.9833665490150452,1.0951244831085205,1.3839759826660156,0.7045101431272421,0.6397594310303947,0.2798769399658755,-0.12665760555132366
1719103273278188300,7.939188232421875,14.175329208374023,-10.659124374389648,3.660390853881836,0.5306074023246765,-0.8469850420951843,0.03274424001574516,0.9069231748580933,0.9155427813529968,1.2627116441726685,0.6746524109123124,0.6833284139114002,0.22233847629745357,-0.16873658174758585
1719103273288242400,7.949242431640625,14.176838874816895,-10.208235740661621,4.5228447914123535,0.5023046731948853,-0.8588035702705383,0.10073088854551315,0.7314295172691345,0.587364912033081,0.9718399047851562,0.6380815333273463,0.7245027978028312,0.1595654695985593,-0.20612280360974708
1719103273298297300,7.95929736328125,11.74359130859375,-8.308104515075684,5.2945756912231445,0.47233352065086365,-0.8651437759399414,0.16860449314117432,0.45135730504989624,0.3330545425415039,0.6492208242416382,0.6007001726414485,0.7581469516450356,0.0975471377551845,-0.23421604393816456
1719103273308351200,7.969351318359375,8.16533088684082,-6.052911281585693,5.919970512390137,0.43724820017814636,-0.8713431358337402,0.22265511751174927,0.034355223178863525,-0.01633697748184204,0.2203686237335205,0.571600450383704,0.7807165680607404,0.0425346871831712,-0.24888833622747314
1719103273318406400,7.979406494140625,4.235750198364258,-4.956738471984863,6.402067184448242,0.39601749181747437,-0.882187008857727,0.25478681921958923,-0.324972540140152,-0.703262209892273,-0.36269688606262207,0.5552950903290857,0.7920660146591493,-0.004983139275653916,-0.253483742495886
1719103273328461000,7.9894609375,0.21438279747962952,-4.663778781890869,6.358078956604004,0.3506062924861908,-0.9006621837615967,0.2566773593425751,-0.03860980272293091,-1.09889554977417,-0.8934266567230225,0.5540636269512189,0.7912950863677299,-0.046805578516091136,-0.254312731575413
1719103273338515200,7.99951513671875,-3.038205862045288,-5.003782749176025,5.346198558807373,0.3082950711250305,-0.9238292574882507,0.22692172229290009,0.8722926378250122,-0.6557604670524597,-1.150276780128479,0.5660186562935576,0.7789693207461522,-0.08165571470647388,-0.25721962697389766
1719103273348570400,8.0095703125,-5.0122480392456055,-5.184160232543945,4.390799522399902,0.2731981873512268,-0.9461349844932556,0.17375585436820984,1.681498408317566,0.025038301944732666,-1.2192575931549072,0.5855674658495063,0.758162734950398,-0.10985078391394743,-0.26501453415368
1719103273358624300,8.019624267578125,-6.569948196411133,-5.0971455574035645,3.9248976707458496,0.24056632816791534,-0.9649813771247864,0.1045873835682869,2.0397071838378906,0.7006229758262634,-1.1951483488082886,0.6097801685672689,0.7311616673528083,-0.13302747293122089,-0.275453002150349
1719103273368679200,8.02967919921875,-7.8028950691223145,-4.784610748291016,3.3820979595184326,0.2079247236251831,-0.9778793454170227,0.022788630798459053,2.0656347274780273,1.267307996749878,-0.7723156213760376,0.6373818279635803,0.69887650154096,-0.15154521205744945,-0.28696704736861345
1719103273378734300,8.039734375,-7.575625896453857,-4.455717086791992,2.8477821350097656,0.17630253732204437,-0.9822861552238464,-0.06349368393421173,1.9519628286361694,1.4776170253753662,-0.27479368448257446,0.6651983936898246,0.6639318808471125,-0.16567322426296696,-0.2987608157566724
1719103273388788200,8.049788330078124,-5.86653470993042,-3.9868245124816895,2.302734375,0.1465016007423401,-0.9797131419181824,-0.1367456614971161,1.8849315643310547,1.3190534114837646,-0.08610892295837402,0.6874099732463672,0.6323478838277706,-0.1782226787742283,-0.3095809333907199
1719103273398843400,8.059843505859375,-4.311184883117676,-3.437028408050537,1.7290661334991455,0.12041255086660385,-0.9740231037139893,-0.19178040325641632,1.9943945407867432,1.1764309406280518,-0.02811400592327118,0.7030548849050205,0.6068011537439018,-0.1894786479758143,-0.3187537870259784
1719103273408897300,8.069897216796875,-2.8035595417022705,-2.2135651111602783,-5.374218463897705,0.13155671954154968,-0.9653039574623108,-0.22556878626346588,1.981541395187378,1.0114617347717285,0.1607189178466797,0.7082984312975009,0.5936613144715656,-0.18649893856628535,-0.3333133890903629
1719103273418952200,8.0799521484375,-6.416101932525635,-5.810301303863525,0.4976605772972107,0.1464407593011856,-0.9488546252250671,-0.2796963155269623,2.509641408920288,-0.17152196168899536,0.1587398648262024,0.7143590917068584,0.5708613916043298,-0.18511919805938204,-0.35991567915655187
1719103273429007400,8.09000732421875,-1.6732451915740967,-3.9011096954345703,-0.06771694123744965,0.12445113807916641,-0.9350881576538086,-0.33184677362442017,3.372436046600342,-0.628083348274231,1.121870517730713,0.723625398581806,0.543304218407835,-0.19722357666488383,-0.37721326233118013
1719103273439061500,8.1000615234375,2.906726121902466,-0.2493351250886917,-1.062870979309082,0.12650111317634583,-0.938562273979187,-0.3210892677307129,1.0901432037353516,-0.519048810005188,0.7062211036682129,0.716510467821882,0.5457745690098247,-0.20392519518282254,-0.38361094118049105
1719103273449116200,8.1101162109375,1.6121894121170044,-0.8089816570281982,0.7113083004951477,0.1255316138267517,-0.9455997347831726,-0.3001382648944855,0.2348809540271759,0.08405798673629761,0.27097877860069275,0.7095661548524917,0.5530389582631743,-0.20994944996452347,-0.38286421817008304
1719103273459171300,8.12017138671875,-0.20935814082622528,-1.6237609386444092,-0.20789821445941925,0.11877479404211044,-0.947955310344696,-0.29542043805122375,0.43725547194480896,-0.06435853242874146,0.7524822950363159,0.707042294333046,0.5526448545933688,-0.2165027488365725,-0.38444942663838805
1719103273469225500,8.1302255859375,-0.7853870987892151,-1.2855972051620483,-0.5835205316543579,0.1191399097442627,-0.9456146955490112,-0.30268555879592896,0.2483985424041748,-0.22734367847442627,0.8258941769599915,0.7060260154454591,0.5482601575368155,-0.21924419648634616,-0.3909860280962348
1719103273479280000,8.140280029296875,-0.32832932472229004,-0.8630446195602417,-0.018742408603429794,0.11826682090759277,-0.9435331225395203,-0.3094482719898224,0.4494974613189697,0.09805887937545776,0.9859314560890198,0.7057571166334141,0.5442836160702909,-0.2214299302050163,-0.3957663849345265
1719103273489334300,8.150334228515625,0.0819418802857399,-0.26835277676582336,-0.12230142205953598,0.11723379790782928,-0.9429998397827148,-0.31146031618118286,0.3173364996910095,0.4014654755592346,1.0236338376998901,0.7052809674508559,0.5426964652994024,-0.22304795262660868,-0.39788056423903395
1719103273499389200,8.16038916015625,0.29968565702438354,0.07786694914102554,0.04387529939413071,0.11747174710035324,-0.9437990188598633,-0.30893975496292114,-0.02602582424879074,0.11755084991455078,0.9478099942207336,0.7042473331133124,0.5435213544551484,-0.223863034734679,-0.398127539657436
1719103273509444400,8.1704443359375,-0.6080710887908936,0.15719294548034668,0.727795422077179,0.11436505615711212,-0.9438235759735107,-0.31002819538116455,-0.03231856971979141,-0.3958522081375122,0.707840085029602,0.7054544683790291,0.542881456187557,-0.22419996119356478,-0.3966711162184151
1719103273519498200,8.180498291015626,-1.4911547899246216,0.057245831936597824,1.2114765644073486,0.10515523701906204,-0.9416943192481995,-0.3196154534816742,0.20797035098075867,-0.669267475605011,0.5466967821121216,0.7104155278525208,0.5383460085981184,-0.22444566287347628,-0.39384949295708316
1719103273529553200,8.19055322265625,-2.508033275604248,-0.3367885649204254,0.8720802664756775,0.0958329439163208,-0.9357984662055969,-0.33925971388816833,0.5124129056930542,-0.6777573823928833,0.24193915724754333,0.7176659284569658,0.5295983483355338,-0.22337352413560652,-0.3931735057193577
1719103273539607300,8.200607177734375,-2.669492721557617,-0.6041683554649353,0.6785573959350586,0.08643750846385956,-0.9269625544548035,-0.36506012082099915,0.47346848249435425,-0.37279629707336426,0.04117712378501892,0.7257313674089763,0.517815198604831,-0.22212013964654065,-0.39477077092953605
1719103273549662500,8.210662353515625,-2.0988850593566895,-0.21145565807819366,0.7005979418754578,0.07880126684904099,-0.9186041951179504,-0.3872424364089966,0.1433514505624771,-0.30522698163986206,0.3258410692214966,0.7326958591523461,0.5076682820363296,-0.22057128834861134,-0.3959520589831189
1719103273559717000,8.220717041015625,-2.00801420211792,-0.16887491941452026,0.9214115738868713,0.07061366736888885,-0.9111407995223999,-0.40600016713142395,-0.10970669239759445,-0.3461223840713501,0.13274580240249634,0.7392137904534564,0.4989105205041304,-0.21929022368533183,-0.3956805555555103
1719103273569771300,8.230771240234375,-2.435131549835205,-0.19750948250293732,1.0932974815368652,0.060527294874191284,-0.9025922417640686,-0.426220178604126,-0.14011716842651367,-0.3528245687484741,0.09003856778144836,0.7465537804933824,0.48921073093674144,-0.21808889355587077,-0.39467395742327543
1719103273579826400,8.240826416015626,-2.942110538482666,-0.2741536796092987,1.2018039226531982,0.04915156587958336,-0.8913438320159912,-0.450655460357666,-0.07762448489665985,-0.5077192783355713,0.13577508926391602,0.7550444139887462,0.4772806826640935,-0.21650731116654068,-0.3939996435832285
1719103273589880300,8.25088037109375,-3.2586400508880615,0.0365179143846035,1.4414145946502686,0.03644830361008644,-0.8774476051330566,-0.47828570008277893,-0.004862625151872635,-0.47573232650756836,0.24970903992652893,0.7648507625515716,0.46366317010115493,-0.2141812777799496,-0.3926144596354417
1719103273599935200,8.260935302734374,-3.571791887283325,0.10910370200872421,1.5001667737960815,0.024768652394413948,-0.8609313368797302,-0.5081179738044739,-0.1167791485786438,-0.24844372272491455,0.5471346974372864,0.7755230840964469,0.449134887832821,-0.2102828259932946,-0.3906699675199923
1719103273609990400,8.270990478515625,-4.251027584075928,0.03270533308386803,1.4493939876556396,0.012239054776728153,-0.8407195806503296,-0.5413323640823364,-0.02145538106560707,-0.27019649744033813,0.5146448016166687,0.7870713501694167,0.43239549918615333,-0.205834755796483,-0.3888249693081058
1719103273620044300,8.281044189453125,-4.430057525634766,0.23968036472797394,1.6341803073883057,0.0005749188712798059,-0.8166026473045349,-0.5772000551223755,-0.015528528019785881,-0.22599995136260986,0.546667218208313,0.7993935980381286,0.4140306399097537,-0.19994646967063326,-0.3867428441684809
1719103273630099200,8.29109912109375,-4.3618879318237305,0.3415960669517517,1.8656949996948242,-0.012277407571673393,-0.789987325668335,-0.6130001544952393,0.05924393981695175,-0.10576456785202026,0.5005733966827393,0.8121454414299306,0.3948410841796058,-0.19390832311885006,-0.38330118901117993
1719103273640154400,8.301154296875,-4.130259990692139,0.2753022611141205,1.3805733919143677,-0.0233761053532362,-0.763073742389679,-0.6458885073661804,0.11996422708034515,0.16473090648651123,0.3916466236114502,0.8236912089544475,0.3764847422744175,-0.18792280306860368,-0.3801012160739938
1719103273650208300,8.311208251953126,-3.892523765563965,0.4825001657009125,1.3932695388793945,-0.031566228717565536,-0.7358798384666443,-0.6763759851455688,0.009379927068948746,0.4183444380760193,0.23240631818771362,0.834112759694799,0.3590442132582513,-0.1813815426622568,-0.3774174325528816
1719103273660263400,8.321263427734374,-3.5044610500335693,0.17551815509796143,0.7621832489967346,-0.03748856484889984,-0.7091802358627319,-0.7040297985076904,0.06037672981619835,0.5580114126205444,0.02795863151550293,0.8433462765771353,0.3427278252512181,-0.17470753770855438,-0.375209306030506
1719103273670317000,8.331317138671874,-2.0359749794006348,0.26703980565071106,0.30598434805870056,-0.03921936824917793,-0.6891046762466431,-0.7235997319221497,-0.0010180696845054626,0.7513453364372253,-0.04143017530441284,0.8491980814025779,0.3309800867758692,-0.1692699727019697,-0.37504990898316426
1719103273680372200,8.341372314453125,-0.4164489805698395,0.05590173229575157,-0.09743315726518631,-0.03823177143931389,-0.679505467414856,-0.7326736450195312,-0.1740943044424057,0.830597996711731,-0.00209808349609375,0.8516740507315912,0.3257172826060258,-0.16604646998642741,-0.3754838670768822
1719103273690427400,8.351427490234375,2.432729721069336,1.06161630153656,-0.5854179263114929,-0.033069003373384476,-0.6868429780006409,-0.7260531783103943,-0.24976792931556702,0.8486471772193909,-0.007741987705230713,0.8498223956357718,0.3309774341641916,-0.1656120478058102,-0.37527127993047543
1719103273700481300,8.361481201171875,3.1490111351013184,1.5945355892181396,-0.9279731512069702,-0.01895035058259964,-0.7070514559745789,-0.7069082260131836,-0.30061447620391846,0.8551532030105591,-0.0702219009399414,0.8445899115236678,0.34569798079269287,-0.16443477004946686,-0.37432898011629584
1719103273710536200,8.3715361328125,2.593824863433838,1.4125511646270752,-0.7329673171043396,-0.0020105617586523294,-0.7280031442642212,-0.6855708360671997,0.050029948353767395,0.7785860300064087,0.1636592149734497,0.8390386383025192,0.3619389346032172,-0.161909827789625,-0.3725582070300232
1719103273720590300,8.38159033203125,0.9901726841926575,2.161001682281494,-0.09043044596910477,0.01277797669172287,-0.7406007051467896,-0.6718239188194275,0.660760223865509,0.12976086139678955,0.09791034460067749,0.8362631982905534,0.37328053912181025,-0.15732032609796842,-0.36956169174758946
1719103273730645200,8.391645263671874,-2.644685983657837,1.4905468225479126,-0.33544644713401794,0.02680971287190914,-0.735960066318512,-0.6764939427375793,0.6003569960594177,-0.44836610555648804,0.14185643196105957,0.8386754544852378,0.3740409857180655,-0.14780520587158347,-0.3672470662612673
1719103273740700200,8.4017001953125,-5.632373332977295,0.5136828422546387,-0.72788006067276,0.03851725906133652,-0.705707848072052,-0.7074551582336426,0.4574391543865204,-0.754069983959198,0.3483548164367676,0.8461888687717632,0.35810880142440543,-0.13427772296334106,-0.37106863541552515
1719103273750754300,8.41175439453125,-6.409719944000244,0.5730825662612915,0.30203762650489807,0.04301447048783302,-0.661189079284668,-0.7489851713180542,0.6628418564796448,-0.693394660949707,0.23366540670394897,0.8568514405242551,0.33313746536173294,-0.1205273719716255,-0.37456395704771556
1719103273760809200,8.421809326171875,-6.958503723144531,0.691544234752655,-0.5387120246887207,0.04855768010020256,-0.6091052889823914,-0.7916014790534973,0.41749149560928345,-0.10503655672073364,0.07411795854568481,0.8678142839565514,0.3052761349436443,-0.10490825595586653,-0.37775544700101243
1719103273770864000,8.431864013671875,-5.343784809112549,1.0115677118301392,-0.8391709923744202,0.05929119512438774,-0.5572257041931152,-0.8282415270805359,-0.15529951453208923,0.5676321983337402,0.20992493629455566,0.8760869615431065,0.27943750058989575,-0.08828311795265598,-0.38287375937115253
1719103273780918300,8.441918212890625,-3.8353688716888428,1.5828146934509277,-0.9186112284660339,0.07561745494604111,-0.5178564190864563,-0.852118968963623,-0.1815439760684967,0.8981969952583313,-0.016640186309814453,0.8811757782761989,0.26216934264299535,-0.07216468788631497,-0.38676720137978915
1719103273790973200,8.45197314453125,-2.316210985183716,1.5223729610443115,-1.0983425378799438,0.09460490942001343,-0.49070391058921814,-0.8661752939224243,0.017730295658111572,0.8518794775009155,-0.08765161037445068,0.8836401099158867,0.25213164317444664,-0.05780992971449271,-0.3902153117703395
1719103273801027300,8.46202734375,-1.5542354583740234,1.3266329765319824,-0.8443349599838257,0.11185035109519958,-0.4734407663345337,-0.8736952543258667,0.271602988243103,0.4565645456314087,-0.0830613374710083,0.8843932684434559,0.24694523182967762,-0.046587852819903144,-0.3933145714519312
1719103273811082200,8.472082275390624,-2.063978433609009,1.2337055206298828,-0.900818407535553,0.12749053537845612,-0.4571588933467865,-0.8801999092102051,0.3504452407360077,-0.0190373957157135,0.12676668167114258,0.8850791048596336,0.2420460715487022,-0.03624555943079875,-0.39589757781136486
1719103273821137200,8.48213720703125,-2.78926420211792,1.2345619201660156,-1.1274994611740112,0.14252915978431702,-0.4338237941265106,-0.8896529674530029,0.1457551270723343,-0.2662036716938019,0.41344141960144043,0.8862487555451682,0.23357652123850972,-0.024809836826318463,-0.39923645903748406
1719103273831191300,8.49219140625,-2.6244239807128906,1.2167803049087524,-0.9748790264129639,0.15848305821418762,-0.40689176321029663,-0.8996233940124512,-0.007253199815750122,-0.06977754831314087,0.45890378952026367,0.8874670770487025,0.22369345607500205,-0.012228955914386866,-0.40275798466196355
1719103273841246500,8.50224658203125,-1.3375355005264282,1.588607668876648,-0.8472347855567932,0.17452852427959442,-0.3872004449367523,-0.905326247215271,0.03083951771259308,0.3118983209133148,0.379264235496521,0.8878621368975392,0.21756780844507095,-0.001060653637943247,-0.4054183378421888
1719103273851301000,8.512301025390625,-0.179642453789711,1.8479944467544556,-1.0445458889007568,0.19400404393672943,-0.37880274653434753,-0.9049148559570312,0.04323957860469818,0.5274691581726074,0.36670684814453125,0.8867383039335752,0.2178462030877736,0.009251774114752724,-0.407618411104994
1719103273861355300,8.522355224609376,0.5178831219673157,2.05932354927063,-0.8302895426750183,0.2157147079706192,-0.3786803185939789,-0.9000380039215088,0.0892016738653183,0.4389830529689789,0.3765394687652588,0.8843264372623774,0.22277975191086435,0.01871334820365063,-0.40986061261727263
1719103273871410400,8.532410400390624,0.39568251371383667,2.10971999168396,-0.7610293030738831,0.23759208619594574,-0.3811405301094055,-0.8934662342071533,0.30937445163726807,0.16222268342971802,0.3051331043243408,0.8818955399740683,0.22910226332936762,0.027911315914877236,-0.4110879482012823
1719103273881464300,8.54246435546875,0.24335715174674988,2.162485122680664,-0.6944255232810974,0.25935718417167664,-0.38264116644859314,-0.8867466449737549,0.269115686416626,0.00610002875328064,0.3083775043487549,0.8796049821936551,0.23501006120474952,0.03737587293784815,-0.41190830282728647
1719103273891519200,8.552519287109375,0.9419340491294861,2.242546796798706,-0.619242787361145,0.2814245820045471,-0.3851434588432312,-0.8788996934890747,0.2663506865501404,0.0601007342338562,0.4041377305984497,0.877176410483133,0.241565304163176,0.046865161828001184,-0.41232444344159097
1719103273901574400,8.562574462890625,1.1369954347610474,2.494378089904785,-1.2545526027679443,0.3065388798713684,-0.39266008138656616,-0.8670939803123474,0.2363535761833191,0.16211503744125366,0.3498973250389099,0.873341409465671,0.2515249163058776,0.05646443455377804,-0.4133058303647605
1719103273911628300,8.572628173828125,1.2970510721206665,2.672560691833496,-1.0760246515274048,0.33348920941352844,-0.39995285868644714,-0.8537110686302185,0.16599199175834656,0.44228073954582214,0.3803987503051758,0.8683215199740572,0.2621476109935719,0.0665062510211892,-0.415780245295327
1719103273921683200,8.58268310546875,1.0439373254776,2.6455342769622803,-1.1260148286819458,0.3616830110549927,-0.40585869550704956,-0.8393235802650452,0.3970297873020172,0.7206169962882996,0.18569815158843994,0.863380142318906,0.2725908537536596,0.07766866750811321,-0.41741647672755733
1719103273931737000,8.592737060546876,0.20523247122764587,2.401207685470581,-0.9282864332199097,0.3870082497596741,-0.4079133868217468,-0.8269408941268921,0.5687412023544312,0.2422792613506317,0.08347171545028687,0.8591459807221208,0.28052953083626614,0.08850270742734902,-0.4187344494361036
1719103273941792300,8.602792236328124,-1.194646954536438,1.9807323217391968,-0.8990097641944885,0.40866750478744507,-0.4003722369670868,-0.8201786279678345,0.6847620606422424,-0.3057892620563507,0.255405068397522,0.8568524664434145,0.28263903752978703,0.10012925699326451,-0.4193962534790076
1719103273951847400,8.612847412109375,-1.6102590560913086,2.0521254539489746,-1.007978916168213,0.42894408106803894,-0.3839843273162842,-0.8176570534706116,0.5004534721374512,0.04957270622253418,0.3639217019081116,0.8559130056030712,0.27988376741150794,0.11329852956456002,-0.4198112673813739
1719103273961901300,8.6229013671875,-1.4151023626327515,2.431788444519043,-1.0541592836380005,0.4507829546928406,-0.36727938055992126,-0.8135727643966675,0.24184399843215942,0.47706636786460876,0.3106125593185425,0.8545012514775973,0.27750986192810706,0.12728670306852652,-0.4202547302355837
1719103273971956200,8.632956298828125,-1.2681020498275757,2.5408549308776855,-1.1620303392410278,0.475216269493103,-0.35130003094673157,-0.8066956400871277,0.17645606398582458,0.527844250202179,0.4006134867668152,0.8523084857161121,0.27636072044065707,0.14239712948220798,-0.42061638448160044
1719103273982011400,8.643011474609375,-1.8990241289138794,2.592216968536377,-0.9697713255882263,0.499900221824646,-0.3329293727874756,-0.7995359897613525,0.311775803565979,0.20818877220153809,0.28760361671447754,0.8503092487459413,0.2741009588525086,0.15843189995500404,-0.4204071362857035
1719103273992065300,8.653065185546875,-1.9595184326171875,2.6280624866485596,-1.2709133625030518,0.5241889953613281,-0.3121313452720642,-0.7923382520675659,0.4958915710449219,0.1934790015220642,0.3335827589035034,0.8484285804587267,0.2705638163803054,0.1750031111098564,-0.41992626147381995
1719103274002120200,8.6631201171875,-2.3887014389038086,2.9085991382598877,-1.5006873607635498,0.5502009391784668,-0.2873239815235138,-0.7840433120727539,0.4213566780090332,0.5293588638305664,0.3885354995727539,0.8458963276051858,0.26579163249366067,0.1932179215715907,-0.42009650634816226
1719103274012174300,8.67317431640625,-2.2154645919799805,2.9854447841644287,-1.6171011924743652,0.5778269171714783,-0.2598625123500824,-0.7736843824386597,0.39864397048950195,0.8005882501602173,0.47424590587615967,0.8426168262556379,0.2604486458365384,0.21289504832908485,-0.4205225106529124
1719103274022229200,8.683229248046874,-1.921258807182312,3.0952858924865723,-1.5582085847854614,0.605463981628418,-0.23468469083309174,-0.7604843974113464,0.5098772048950195,0.8335311412811279,0.24824684858322144,0.8384592987432856,0.2565570751535803,0.23224181576334182,-0.420984992623978
1719103274032284200,8.6932841796875,-2.147515296936035,2.9679715633392334,-1.4997400045394897,0.6317770481109619,-0.20976155996322632,-0.7462290525436401,0.5985391139984131,0.4893788695335388,-0.05472004413604736,0.8341537060050216,0.2525426793312398,0.2512123727147538,-0.42107254321051124
1719103274042338300,8.70333837890625,-1.6764614582061768,3.0572433471679688,-1.4362190961837769,0.6569501161575317,-0.18614298105239868,-0.7305938005447388,0.5444964170455933,0.13086040318012238,-0.02773749828338623,0.829572671220258,0.24898379695668063,0.26964821620477114,-0.42083965456427613
1719103274052393200,8.713393310546875,-1.6928701400756836,3.1185030937194824,-1.7664856910705566,0.6821226477622986,-0.16326546669006348,-0.7127783894538879,0.5847840309143066,0.40360668301582336,-0.16681444644927979,0.8240149084138927,0.2462819187675617,0.2880208870341053,-0.42117514535534106
1719103274062447400,8.723447265625,-1.9915739297866821,3.239535093307495,-2.1130528450012207,0.7076746821403503,-0.1368214339017868,-0.6931641101837158,0.5678685307502747,0.933330237865448,-0.1373869776725769,0.8171839456632402,0.24276468895976885,0.30738127189918724,-0.4228386642650439
1719103274072502300,8.733502197265626,-2.692718744277954,3.3341920375823975,-2.1358518600463867,0.7327655553817749,-0.10555584728717804,-0.6722444295883179,0.6252666115760803,0.7990983724594116,-0.10873085260391235,0.8102538281890663,0.236853481421583,0.32829594508394316,-0.423805160675159
1719103274082557200,8.74355712890625,-4.4361162185668945,3.1481246948242188,-2.1273465156555176,0.756149411201477,-0.06606900691986084,-0.6510552167892456,0.7730405926704407,0.05470121651887894,-0.20421510934829712,0.8043376278054202,0.22571664954585413,0.35146037453121365,-0.4225736453978059
1719103274092611300,8.753611328125,-5.5601091384887695,3.204204797744751,-2.2941672801971436,0.7772586941719055,-0.017017444595694542,-0.6289509534835815,0.834328830242157,-0.2390860766172409,0.021407008171081543,0.7994488166522365,0.20816264494033215,0.3770846426313687,-0.4187565332733102
1719103274102666500,8.76366650390625,-6.424435615539551,3.1794168949127197,-2.5706143379211426,0.7969887256622314,0.040173064917325974,-0.6026566624641418,0.755059003829956,0.05537746846675873,-0.06110060214996338,0.7940396775008577,0.18563454648307576,0.40523014447266,-0.4133150752771422
1719103274112721200,8.77372119140625,-6.275323390960693,3.224975109100342,-2.4884231090545654,0.8140038847923279,0.09843553602695465,-0.572458028793335,0.7029028534889221,0.5279988050460815,-0.20572495460510254,0.787596482507413,0.16155845378352698,0.4332087682089809,-0.4073339483263634
1719103274122775300,8.783775390625,-6.103221416473389,3.065936803817749,-2.4845879077911377,0.828525185585022,0.1530454158782959,-0.5386307835578918,0.7231410145759583,0.4113314151763916,-0.37830036878585815,0.7800734610922461,0.1383384197457555,0.4599424829909934,-0.40099978385555135
1719103274132830500,8.79383056640625,-5.920305252075195,3.0398242473602295,-2.4091796875,0.8399953246116638,0.20514808595180511,-0.5023166537284851,0.6836099624633789,0.091681107878685,-0.2933528423309326,0.7718235902911956,0.11505195906095912,0.4853913106769744,-0.39426717205817496
1719103274142884400,8.80388427734375,-5.369581699371338,3.085437536239624,-2.594832181930542,0.8490493297576904,0.25395023822784424,-0.4632757902145386,0.7096207141876221,0.3350695073604584,-0.24567803740501404,0.7622245268184167,0.09292968855825012,0.5096333693709638,-0.38813863991071035
1719103274152939300,8.813939208984374,-4.878486633300781,3.392526388168335,-2.7578065395355225,0.8558343052864075,0.2992096543312073,-0.42192578315734863,0.716019332408905,0.7653045654296875,-0.37934374809265137,0.7507225575966289,0.07309150519159255,0.5326300206765244,-0.3838992631866503
1719103274162994400,8.823994384765625,-5.082826137542725,3.702899932861328,-2.7782840728759766,0.8609060645103455,0.34352755546569824,-0.37527284026145935,0.704050600528717,0.6472561359405518,-0.28268611431121826,0.7373309932797176,0.05335245022459634,0.5563426010538054,-0.3794463946878954
1719103274173048300,8.83404833984375,-5.102934837341309,4.019787788391113,-2.5188865661621094,0.8648876547813416,0.38422223925590515,-0.3230213522911072,0.7269702553749084,-0.007848918437957764,-0.14932972192764282,0.7223946507286966,0.0345076306574381,0.5807740990718043,-0.37370684163898643
1719103274183103200,8.844103271484375,-4.830729961395264,3.843933582305908,-2.5993330478668213,0.866354763507843,0.4213458001613617,-0.26813623309135437,0.7961055040359497,-0.2971697747707367,-0.259604275226593,0.706557953081185,0.01611010405235034,0.6047084837575633,-0.3672110340062292
1719103274193158400,8.854158447265625,-4.045008182525635,4.043591499328613,-2.8910715579986572,0.864082932472229,0.4558109939098358,-0.2135343700647354,0.8957131505012512,0.1600794494152069,-0.1832094043493271,0.6893740637516571,-0.0006972372621425391,0.6270823920325851,-0.3626713880456228
1719103274203212300,8.86421240234375,-3.2823574542999268,4.060020923614502,-3.160076856613159,0.857363760471344,0.48869407176971436,-0.1615714728832245,0.995587170124054,0.7317954301834106,-0.2378120869398117,0.6707844637956861,-0.015230805824553885,0.6472884126608374,-0.36170962937421197
1719103274213266200,8.87426611328125,-3.466559410095215,3.9136416912078857,-3.9160351753234863,0.8441630005836487,0.5244877338409424,-0.11091241240501404,0.9982900023460388,0.8069332242012024,-0.22096621990203857,0.6508185216079927,-0.03130102791044386,0.6660060365550043,-0.36316872851451176
1719103274223320300,8.8843203125,-3.8858165740966797,3.88135027885437,-3.2727105617523193,0.8280750513076782,0.5576043128967285,-0.05804595723748207,1.1189465522766113,0.27036815881729126,-0.13928067684173584,0.6304437035649127,-0.04837308903652662,0.6845707165677832,-0.36271732804730056
1719103274233375000,8.894375,-3.3690690994262695,4.091796398162842,-3.343925952911377,0.8104497194290161,0.5857900381088257,-0.004606384318321943,1.3582971096038818,-0.23595184087753296,-0.16478145122528076,0.6096260291906186,-0.06386682338623183,0.7025794166806109,-0.36146823864055194
1719103274243430100,8.90443017578125,-3.1433119773864746,3.813983678817749,-3.3698742389678955,0.7894412279129028,0.6120215654373169,0.047032881528139114,1.2217433452606201,-0.31848829984664917,-0.19824743270874023,0.5882023519969243,-0.07849892225434098,0.7192734940715622,-0.361249968785749
1719103274253484300,8.914484375,-2.168079137802124,3.929180860519409,-3.394016742706299,0.7656930685043335,0.6362118721008301,0.094596266746521,1.203880786895752,0.0073580145835876465,-0.08663118630647659,0.5665729495535403,-0.09121888541552399,0.7341506993988128,-0.362900666823313
1719103274263539200,8.924539306640625,-1.7430235147476196,4.19245719909668,-3.2279114723205566,0.7391473650932312,0.6590228080749512,0.13910523056983948,1.247196078300476,0.0678907036781311,-0.2694915533065796,0.5441234580362625,-0.10179747256548016,0.7477900057647775,-0.3665748545472815
1719103274273594000,8.934593994140625,-0.8096455335617065,3.629605770111084,-3.0033390522003174,0.7117698788642883,0.6798803210258484,0.17648376524448395,1.359717607498169,-0.1714116334915161,-0.15211546421051025,0.5226528360934157,-0.1097293208057542,0.7590792830385777,-0.3722797215374593
1719103274283648300,8.944648193359376,-0.09474178403615952,3.5271735191345215,-2.659029722213745,0.6853266954421997,0.6988922953605652,0.20463858544826508,1.3949038982391357,-0.5722748637199402,0.07027900218963623,0.5030298923754974,-0.11431495233023636,0.7676271110165555,-0.38031788644556025
1719103274293703200,8.954703125,-1.5402244329452515,3.414856195449829,-2.3825418949127197,0.6596258282661438,0.7142981886863708,0.23382064700126648,1.127666711807251,-0.5700415372848511,0.15646865963935852,0.4843303710481071,-0.11975395137999818,0.776253384535877,-0.3853749748751047
1719103274303758000,8.964758056640624,-0.9441685080528259,3.3901028633117676,-2.280606746673584,0.6349099278450012,0.725675106048584,0.26511362195014954,1.113854169845581,-0.3373083472251892,0.43294548988342285,0.4659914899713721,-0.12521258261539495,0.785416205387107,-0.3876792180143904
1719103274313812200,8.974812255859375,-0.9829744696617126,3.3902111053466797,-2.0039641857147217,0.6093246936798096,0.7368923425674438,0.2927679419517517,1.1227920055389404,-0.5360409021377563,0.10528814792633057,0.4477074658415475,-0.1292899810254441,0.7935162670249865,-0.3913745773361802
1719103274323867100,8.9848671875,-0.4691167175769806,2.852264642715454,-1.7925668954849243,0.5860676765441895,0.7452776432037354,0.3179404139518738,1.104590892791748,-0.46736931800842285,0.083762526512146,0.43069344917758656,-0.1317402893872686,0.8010085501112544,-0.39437674748187057
1719103274333921300,8.99492138671875,0.16556204855442047,2.1341586112976074,-2.2183761596679688,0.5626000761985779,0.7565757036209106,0.3332783579826355,1.1566381454467773,-0.46119606494903564,0.12286794185638428,0.4165240492242732,-0.13526537107883957,0.8051971539228062,-0.3998357199912176
1719103274343976200,9.00497607421875,0.07523827254772186,1.5854887962341309,-2.329106569290161,0.5396345257759094,0.7693173885345459,0.3419732451438904,1.0715258121490479,-0.17242395877838135,0.07517161965370178,0.40489761859768847,-0.14018688823368383,0.8070528190055986,-0.40628983628373144
1719103274354031000,9.015031005859376,-0.7857626080513,1.4936540126800537,-2.1273910999298096,0.5165026187896729,0.7801399827003479,0.35299649834632874,0.8425061106681824,0.09008389711380005,0.020950645208358765,0.3936732482201288,-0.14696652633448382,0.8092583605687088,-0.4105156200386708
1719103274364085200,9.025085205078126,-1.6067416667938232,1.1462533473968506,-1.9006808996200562,0.4957132041454315,0.7864211201667786,0.36852431297302246,0.6881551742553711,0.01338350772857666,0.04967328906059265,0.3833222557947598,-0.15485388956194018,0.8125776475778227,-0.4108550236996364
1719103274374140200,9.03514013671875,-1.8638970851898193,0.6706956624984741,-1.4080078601837158,0.47951796650886536,0.7872317433357239,0.3877227008342743,0.5805253982543945,-0.2776339054107666,0.15710759162902832,0.37472625682376376,-0.16298392829444824,0.8168828453221355,-0.40708593286083655
1719103274384194000,9.045194091796875,-1.7952892780303955,0.809685468673706,-1.3316054344177246,0.4653506577014923,0.786682665348053,0.405683696269989,0.4269680678844452,-0.5696873664855957,0.07332026958465576,0.36716555288910674,-0.17051842507991438,0.8208320908789446,-0.40292385659586505
1719103274394249200,9.055249267578125,-1.9841461181640625,0.2699897885322571,-0.8985178470611572,0.4541901648044586,0.7838269472122192,0.4234698414802551,0.13165578246116638,-0.5878583788871765,0.06955695152282715,0.3609335757615235,-0.17757432643894655,0.8247437626606624,-0.39748218297187715
1719103274404304400,9.065304443359375,-2.0051605701446533,0.27573421597480774,-0.545795202255249,0.4470958411693573,0.7791699767112732,0.4393172562122345,0.07927137613296509,-0.1116589903831482,0.06230020523071289,0.356702404713918,-0.18368566278644857,0.8282017944375519,-0.3912861398473465
1719103274414358000,9.07535791015625,-1.2264066934585571,0.916154146194458,-0.15211698412895203,0.441089391708374,0.7731115818023682,0.45578378438949585,0.04917547106742859,0.17084288597106934,-0.09044253826141357,0.35156289558021053,-0.18708322766146424,0.8324011981737824,-0.38537218524304173
1719103274424413200,9.0854130859375,-1.407971739768982,0.2025708109140396,0.1635110229253769,0.43890145421028137,0.766770601272583,0.4684315621852875,-0.16680681705474854,-0.023865997791290283,-0.19929713010787964,0.34806653896941797,-0.18806549992243726,0.8359707795925856,-0.38030753990043686
1719103274434468400,9.09546826171875,-1.3098164796829224,0.6505597829818726,0.9616721272468567,0.44122594594955444,0.7575763463973999,0.4810386002063751,0.03992950916290283,-0.19908928871154785,0.02202850580215454,0.3460556428764131,-0.18736137166994954,0.839889880234751,-0.37379984706075026
1719103274444522200,9.105522216796874,-1.3132878541946411,0.7433701157569885,1.462308645248413,0.44723185896873474,0.7460135817527771,0.4934040307998657,0.14517533779144287,-0.3329275846481323,-0.15432322025299072,0.34429133242277543,-0.18292234697496573,0.8445362250483304,-0.3670987570947538
1719103274454577200,9.1155771484375,-1.723595142364502,0.7341071367263794,1.5082508325576782,0.45462000370025635,0.7316647171974182,0.5079247355461121,-0.09576374292373657,-0.37167930603027344,-0.08891838788986206,0.34255756040166274,-0.17791667249413892,0.8498870715996921,-0.3587366785887837
1719103274464632300,9.12563232421875,-1.9122838973999023,0.9104225039482117,1.7847561836242676,0.46216142177581787,0.7142754793167114,0.5255635976791382,0.07423070073127747,-0.3792230486869812,-0.13542699813842773,0.3400638815426978,-0.1723200860786665,0.8562053480968217,-0.3486755790821159
1719103274474686200,9.135686279296875,-2.8342766761779785,0.9172441959381104,1.58412504196167,0.4693146049976349,0.6941709518432617,0.5457748770713806,0.23066702485084534,-0.040179312229156494,-0.28338491916656494,0.33717514978857804,-0.1673140406283384,0.8630721037606977,-0.3367868398339511
1719103274484741000,9.1457412109375,-4.4002604484558105,1.4241840839385986,1.7373957633972168,0.47393837571144104,0.6664857864379883,0.5754812955856323,0.3680414855480194,0.35443389415740967,-0.3648643493652344,0.3318062715661228,-0.1640891538952095,0.8722473312709677,-0.3196307522219087
1719103274494795000,9.155794921875,-7.76106595993042,1.3235069513320923,1.463506817817688,0.4765254259109497,0.6222497224807739,0.6210706233978271,0.664877712726593,0.7927893400192261,-0.5534589886665344,0.3233118801680284,-0.16442315808162017,0.8851555396760115,-0.29143454560521553
1719103274504850200,9.16585009765625,-9.270200729370117,1.25351881980896,0.5222351551055908,0.47300300002098083,0.5606033802032471,0.6797000765800476,1.3024944067001343,0.8576247692108154,-0.7108737230300903,0.31084525382199013,-0.17185204279379318,0.900176042666403,-0.25204213536624753
1719103274514905000,9.175905029296874,-10.221306800842285,-0.7402558922767639,0.1269926130771637,0.47373607754707336,0.4897376298904419,0.731936514377594,1.590579628944397,0.5897911787033081,-1.1549253463745117,0.3017916553770156,-0.18508997525439977,0.9119813345872234,-0.20725226670838515
1719103274524959000,9.185958984375,-13.040360450744629,-1.1826415061950684,-1.2126561403274536,0.4792771637439728,0.405830442905426,0.7781999111175537,1.8016371726989746,0.25322720408439636,-0.9629380702972412,0.29494467701432786,-0.20555059259841404,0.920243935636202,-0.15462114858935022
1719103274535014100,9.19601416015625,-14.830695152282715,-2.03023362159729,-2.9663708209991455,0.48369571566581726,0.3028281331062317,0.8211780190467834,2.0209429264068604,0.751935601234436,-0.7434498071670532,0.2849430646172426,-0.2373268181390907,0.9242645717392838,-0.09065525206461059
1719103274545069300,9.2060693359375,-16.092021942138672,-1.3177032470703125,-3.3580434322357178,0.49313291907310486,0.18849265575408936,0.8492885828018188,2.063400983810425,2.10111927986145,-0.5486138463020325,0.27374141733555074,-0.27518580555520666,0.9213669527024286,-0.020530985707102493
1719103274555123200,9.216123291015625,-13.776483535766602,-0.5008965730667114,-2.7153024673461914,0.48628878593444824,0.06929348409175873,0.8710463047027588,1.9028255939483643,3.18113374710083,-0.9112074375152588,0.24963815138231765,-0.30930977141429583,0.9164336426358171,0.04645047446143846
1719103274565178000,9.22617822265625,-11.139625549316406,-2.487123727798462,-6.903903961181641,0.4996287524700165,-0.009296756237745285,0.8661900162696838,-0.1823221743106842,2.7727549076080322,-1.156274676322937,0.23951402389794663,-0.3480208764049909,0.9010973727039387,0.09766342844608765
1719103274575232300,9.236232177734376,-11.199637413024902,-1.7234528064727783,-4.787883758544922,0.5167669653892517,-0.08069100975990295,0.8523151278495789,-0.6321691870689392,2.0814692974090576,-0.18092834949493408,0.22913519799400028,-0.38596007601543914,0.8815851580492747,0.14608066189547386
1719103274585287200,9.246287109375,-11.235892295837402,-3.3576998710632324,-4.1746625900268555,0.5431365370750427,-0.15313108265399933,0.8255624771118164,-0.5507965683937073,3.389291286468506,0.4742879867553711,0.22103009951413338,-0.4158321283354527,0.8601539789493643,0.19586836846060582
1719103274595342000,9.256342041015625,-9.79944896697998,-4.323995113372803,-6.574853897094727,0.5814517736434937,-0.2080535888671875,0.7865286469459534,-1.0446476936340332,2.444061279296875,0.7589424848556519,0.2193645671640996,-0.44564674687986794,0.833464632902663,0.24210493524788548
1719103274605396200,9.266396240234375,-10.53873348236084,-2.4138007164001465,-7.859072685241699,0.6285929679870605,-0.24035297334194183,0.7396628260612488,-2.0059428215026855,0.8727229833602905,0.31481099128723145,0.222098434351883,-0.48146350604548477,0.7987642443423695,0.28432516447393424
1719103274615451100,9.276451171875,-9.65859317779541,-0.48422035574913025,-8.440109252929688,0.6576718091964722,-0.26260146498680115,0.7060513496398926,-2.97088885307312,0.7238135933876038,-0.4628261923789978,0.21281040300949797,-0.523342126473163,0.7610116244399637,0.3188826233182825
1719103274625506000,9.286506103515626,-7.4203410148620605,0.5803543329238892,-8.62224006652832,0.6793246269226074,-0.2648591995239258,0.6843742728233337,-3.7476532459259033,0.575589120388031,-1.671510934829712,0.20323900131687853,-0.5641008269519172,0.7238628355705486,0.341331096093351
1719103274635560200,9.296560302734376,-3.9282984733581543,0.21510231494903564,-8.483175277709961,0.698136568069458,-0.2443733513355255,0.6729691624641418,-2.344529151916504,0.9251136779785156,-2.636591911315918,0.19979964243723697,-0.6012039504217119,0.6892302881395832,0.35156175627256386
1719103274645615000,9.306614990234374,-2.6935811042785645,-1.142676591873169,-8.435811996459961,0.7214178442955017,-0.20562376081943512,0.6612681746482849,-0.15864306688308716,1.2985650300979614,-2.581479787826538,0.2068330749569557,-0.6321900214597442,0.6564829524528566,0.3557894179696915
1719103274655670300,9.316670166015625,-0.0730418935418129,0.05794863775372505,-8.753120422363281,0.7414867281913757,-0.15224100649356842,0.6534677147865295,1.0390307903289795,1.1781961917877197,-1.3116250038146973,0.21957781439173174,-0.6602000772813835,0.6251957321253565,0.35362651790758426
1719103274665724200,9.32672412109375,2.50547456741333,0.7652447819709778,-8.520841598510742,0.7479204535484314,-0.0783013179898262,0.6591538786888123,0.6573681831359863,-0.1061469167470932,-0.9064835906028748,0.2375843081003233,-0.6862278542404772,0.5988892073064827,0.3376043975012771
1719103274675779000,9.336779052734375,2.9352786540985107,1.1922740936279297,-8.848285675048828,0.7445841431617737,0.0061231390573084354,0.6675007939338684,0.3627004623413086,-1.1362196207046509,-0.32677191495895386,0.25898010056133863,-0.7100025230163723,0.5741487704623274,0.31492700968358717
1719103274685833200,9.346833251953125,3.7658023834228516,0.6167232394218445,-7.96128511428833,0.7335030436515808,0.09061532467603683,0.6736186146736145,0.5419180393218994,-1.1905603408813477,0.2730671763420105,0.2806139019661672,-0.7309902122569358,0.5499660250995024,0.2905967778288472
1719103274695888400,9.356888427734376,4.469592571258545,0.6792260408401489,-7.815304756164551,0.7184321880340576,0.1764785200357437,0.672837495803833,0.9913455843925476,-0.4774581491947174,0.6272112727165222,0.30537170884635717,-0.7470829051120563,0.5275280797501368,0.2651967353327929
1719103274705943000,9.366943115234376,3.967153549194336,0.8832976818084717,-7.806277751922607,0.6968454122543335,0.2607618272304535,0.6681391000747681,0.801338791847229,-0.3537183701992035,1.076489806175232,0.3297049078198308,-0.7613799307716792,0.5043512237988822,0.23921779693066977
1719103274715997200,9.3769970703125,3.6743927001953125,1.0473382472991943,-7.271944999694824,0.6671812534332275,0.33811137080192566,0.6637393832206726,0.615121603012085,-0.39945170283317566,1.5234402418136597,0.35045778563256896,-0.7747276239121567,0.48131777697159495,0.212860709915909
1719103274726052000,9.387052001953125,4.1192827224731445,0.6082626581192017,-6.487499713897705,0.6355786323547363,0.4089798927307129,0.6548091769218445,0.7199816107749939,-0.38976913690567017,1.1120059490203857,0.37056562065189497,-0.7848660862679201,0.4597714760611482,0.18782034997407496
1719103274736107000,9.39710693359375,4.143892765045166,-0.1203920766711235,-5.956831455230713,0.6065376996994019,0.47431910037994385,0.6380700469017029,1.0210561752319336,-0.38748136162757874,0.22348695993423462,0.39181460897696807,-0.7911193347857336,0.43950565876760156,0.16566921295455933
1719103274746161200,9.4071611328125,3.0782270431518555,-0.49784964323043823,-5.65218448638916,0.5786698460578918,0.5325977802276611,0.6176415085792542,1.1286208629608154,-0.34410595893859863,-0.2869834899902344,0.4117889772344124,-0.7960659096814736,0.41844929568913103,0.14700053237256144
1719103274756216000,9.417216064453125,1.7795521020889282,-0.38953354954719543,-5.420830249786377,0.5511694550514221,0.5786956548690796,0.6011020541191101,0.9423913359642029,-0.2528136968612671,0.09901702404022217,0.4264523312984702,-0.8019113717943525,0.39684906295100886,0.13261756032891095
1719103274766270200,9.427270263671875,0.809641420841217,-0.20304247736930847,-5.102907180786133,0.5211480259895325,0.615216851234436,0.5915345549583435,0.555008590221405,-0.30183184146881104,0.5478698015213013,0.43575509572867166,-0.8091589450837737,0.37553838971449083,0.11979258088223049
1719103274776325000,9.4373251953125,0.26557105779647827,0.1459759771823883,-5.109213829040527,0.4894499182701111,0.6431962847709656,0.5888440608978271,0.2915559709072113,-0.3412858843803406,0.7147142887115479,0.44033080429413785,-0.8175274631813388,0.35506462044571696,0.10810531468773309
1719103274786380000,9.447380126953124,1.7130992412567139,0.4395862817764282,-4.5985846519470215,0.45503827929496765,0.6721066832542419,0.5841345191001892,0.11582359671592712,-0.3481319546699524,0.5480830073356628,0.44615006838193927,-0.8241784643596994,0.335852835941123,0.09424945909462536
1719103274796434200,9.45743408203125,3.3133931159973145,0.595697283744812,-4.296920299530029,0.4216127097606659,0.7058249115943909,0.5692571997642517,0.03702065348625183,-0.24612343311309814,0.1446252465248108,0.4574601206091448,-0.8260617111228843,0.3197665621652555,0.07811269275849302
1719103274806489300,9.4674892578125,5.814818859100342,0.6199387311935425,-4.065545082092285,0.38688257336616516,0.748867392539978,0.5380703806877136,-0.04867151379585266,-0.14852553606033325,0.08027684688568115,0.47704943604530864,-0.8221341163690427,0.3051732141255231,0.0582126146034557
1719103274816544000,9.4775439453125,7.909783363342285,0.29790982604026794,-3.600447177886963,0.3546287417411804,0.7983031868934631,0.48677563667297363,-0.0023948848247528076,-0.37012630701065063,-0.07587170600891113,0.5052482014436847,-0.8111569787751653,0.2922536237657241,0.036557360803673035
1719103274826598100,9.48759814453125,9.254541397094727,-0.1852205991744995,-3.6114368438720703,0.32464879751205444,0.8501960039138794,0.4144513010978699,0.09562399983406067,-0.7139045596122742,0.015541404485702515,0.540891237757019,-0.7934089268093472,0.2787972778285343,0.014526427691620495
1719103274836653300,9.4976533203125,7.746779441833496,-0.043360136449337006,-3.8057384490966797,0.2927194833755493,0.894560694694519,0.33775240182876587,-0.11016333103179932,-0.9050129055976868,0.3351602554321289,0.5753895460765213,-0.7740847935773405,0.2639487285877867,-0.007122731211676356
1719103274846708000,9.5077080078125,5.21812629699707,0.5031266212463379,-3.977783679962158,0.2562888264656067,0.9253607988357544,0.2793272137641907,-0.4837210774421692,-1.0328435897827148,0.8891298770904541,0.5996349124718364,-0.7600484772070001,0.24897776286244377,-0.027828947274752023
1719103274856762000,9.51776220703125,3.456728935241699,1.0124361515045166,-3.8291165828704834,0.2174423784017563,0.9458436965942383,0.2410358190536499,-0.704487681388855,-1.0695163011550903,1.22087824344635,0.6141570579259348,-0.7516615745062044,0.23563273397342216,-0.04788633248050764
1719103274866817300,9.5278173828125,2.9821481704711914,1.4395384788513184,-3.923368453979492,0.1776505559682846,0.9607521891593933,0.21306271851062775,-0.5854874849319458,-0.8335244059562683,1.0630146265029907,0.6235489147432258,-0.7458720528981484,0.22406749596286915,-0.06823122778947958
1719103274876872000,9.537871826171875,2.892086982727051,1.7367867231369019,-4.061576843261719,0.13576504588127136,0.9728991389274597,0.18717707693576813,-0.3432082533836365,-0.5430590510368347,0.7685571908950806,0.6311318276576685,-0.7404080747712395,0.21303620481134053,-0.08991178118528517
