time,seconds_elapsed,rotationRateX,rotationRateY,rotationRateZ,gravityX,gravityY,gravityZ,accelerationX,accelerationY,accelerationZ,quaternionW,quaternionX,quaternionY,quaternionZ
1719102681279387400,0.079387451171875,0.262128084897995,0.5849967002868652,1.0596885681152344,-0.18771232664585114,-0.49000799655914307,-0.851267397403717,-0.04818853735923767,0.05490368604660034,-0.007420897483825684,0.9620985452264089,0.2546558230890979,-0.09755358742914558,1.6361076650927252e-17
1719102681289442300,0.0894423828125,0.22537852823734283,0.5747504830360413,1.0401661396026611,-0.18787020444869995,-0.49017366766929626,-0.8511371612548828,-0.03646451234817505,0.03752174973487854,0.013505935668945312,0.9620463052362913,0.2553496805365702,-0.09606219711921227,0.005947997453114077
1719102681299496400,0.099496337890625,0.17164605855941772,0.5872622728347778,1.044664978981018,-0.18804065883159637,-0.4899202585220337,-0.8512454628944397,-0.043679267168045044,0.03473538160324097,0.020572245121002197,0.9620204877701151,0.25579077037157816,-0.09459577109856072,0.011795821838251442
1719102681309551400,0.10955126953125,0.17363089323043823,0.6163956522941589,1.0677828788757324,-0.18809953331947327,-0.4894166886806488,-0.8515220880508423,-0.03933270275592804,0.03565087914466858,0.014821648597717285,0.9620006775033844,0.2560926552776937,-0.093034997093318,0.01776713540044936
1719102681319605200,0.119605224609375,0.18309497833251953,0.6318816542625427,1.061080813407898,-0.18796496093273163,-0.48892641067504883,-0.8518334031105042,-0.03784984350204468,0.02977427840232849,0.01186758279800415,0.9619513876576768,0.2563924734411767,-0.09135754911326481,0.023795386237305365
1719102681329660400,0.129660400390625,0.208958238363266,0.590457558631897,1.057401418685913,-0.1879151165485382,-0.48860859870910645,-0.8520267009735107,-0.058193862438201904,0.03139430284500122,-0.005868196487426758,0.9618344801468687,0.25677801913165194,-0.08973118027340815,0.029796221565337608
1719102681339715600,0.139715576171875,0.24933043122291565,0.5599310398101807,1.0386943817138672,-0.18816745281219482,-0.48857998847961426,-0.8519874811172485,-0.047901272773742676,0.03637057542800903,-0.011629462242126465,0.9616223937489471,0.25731896462221904,-0.08827919815048539,0.03572404153816953
1719102681349769500,0.14976953125,0.29037711024284363,0.5477617383003235,1.0033745765686035,-0.1884228140115738,-0.4889809489250183,-0.8517009019851685,-0.02051578462123871,0.0425698459148407,-0.018370509147644043,0.9613165672702982,0.25807724605507193,-0.086865844784807,0.0414830447554895
1719102681359824400,0.159824462890625,0.3092344105243683,0.5338779091835022,0.9790542721748352,-0.1886688768863678,-0.48968741297721863,-0.8512404561042786,-0.015005409717559814,0.0514245331287384,-0.03883528709411621,0.9609379629248117,0.25898612547145344,-0.08547494625513703,0.04710028820556714
1719102681369879600,0.169879638671875,0.30836328864097595,0.5272250175476074,0.9762322902679443,-0.18896698951721191,-0.4905015528202057,-0.8507053852081299,-0.015668600797653198,0.055046290159225464,-0.05453753471374512,0.9605106643803055,0.259944656130448,-0.08411939758031205,0.05264935324909752
1719102681379933400,0.179933349609375,0.2850305438041687,0.4983252286911011,0.9645490050315857,-0.1893313080072403,-0.49121883511543274,-0.850210428237915,-0.00799533724784851,0.05681639909744263,-0.056985676288604736,0.9600659243650477,0.2608392932659529,-0.08281099860812871,0.05812634677760523
1719102681389988400,0.18998828125,0.23382700979709625,0.47021156549453735,0.9552983641624451,-0.18993361294269562,-0.4916021227836609,-0.8498544692993164,-0.006309673190116882,0.06328797340393066,-0.04624849557876587,0.9596324702638068,0.26154431159265557,-0.08165385547015282,0.06350400869217745
1719102681400042200,0.200042236328125,0.20602893829345703,0.44788920879364014,0.9418401122093201,-0.19068044424057007,-0.4916766881942749,-0.8496440649032593,-0.00005440413951873779,0.05939522385597229,-0.025920510292053223,0.9592141193358215,0.26207083572561013,-0.08060299400251905,0.06877795106360912
1719102681410097400,0.210097412109375,0.15111640095710754,0.43600672483444214,0.9125683903694153,-0.19149164855480194,-0.4914264678955078,-0.8496063351631165,0.004190042614936829,0.05188184976577759,-0.023181140422821045,0.9588221863596886,0.26240416369551267,-0.07962960722320984,0.07391342370036942
1719102681420152300,0.22015234375,0.10079676657915115,0.44992199540138245,0.8814458847045898,-0.19212733209133148,-0.490792840719223,-0.8498290777206421,0.0021249204874038696,0.04850161075592041,-0.02858889102935791,0.9584868040245358,0.2624934514935543,-0.07862977435004499,0.07885174086773714
1719102681430206200,0.230206298828125,0.08823516964912415,0.4575687348842621,0.8712734580039978,-0.1925460696220398,-0.4898918867111206,-0.8502540588378906,-0.009922787547111511,0.05645075440406799,-0.030849456787109375,0.9581859448447619,0.26240981341555336,-0.07755036438375977,0.08370634432673127
1719102681440261400,0.240261474609375,0.09113748371601105,0.45065969228744507,0.8625771403312683,-0.1929417848587036,-0.489012748003006,-0.850670337677002,-0.0186212956905365,0.05937108397483826,-0.03925275802612305,0.9578628950674982,0.2623288442205536,-0.07647494228589355,0.08850870534751729
1719102681450316500,0.250316650390625,0.10796703398227692,0.4577586054801941,0.8572247624397278,-0.19323144853115082,-0.48817822337150574,-0.8510837554931641,0.004205599427223206,0.06212237477302551,-0.04013633728027344,0.9575173492725694,0.2622598515172887,-0.07535175104305672,0.0932857873725954
1719102681460370200,0.2603701171875,0.13559840619564056,0.41939765214920044,0.8488765954971313,-0.19364023208618164,-0.4875665009021759,-0.8513414859771729,0.008673205971717834,0.07199344038963318,-0.03877997398376465,0.9571136791595499,0.2623143360381658,-0.07429971930221647,0.09800013749577544
1719102681470425300,0.27042529296875,0.1775815635919571,0.39522892236709595,0.8616031408309937,-0.19435462355613708,-0.4872336685657501,-0.8513692617416382,0.013873666524887085,0.0687919557094574,-0.034601807594299316,0.9566276308452394,0.2625420160381114,-0.07339664394960566,0.10270376568204316
1719102681480479500,0.2804794921875,0.21715666353702545,0.3865065276622772,0.8570443391799927,-0.19520770013332367,-0.4872815012931824,-0.8511466979980469,0.017732754349708557,0.06960275769233704,-0.032886505126953125,0.9560512472966083,0.262991332803258,-0.0725411715205366,0.10742093304421282
1719102681490534400,0.290534423828125,0.23289014399051666,0.404116153717041,0.8917450308799744,-0.19609981775283813,-0.4874831438064575,-0.8508260846138,0.004434213042259216,0.0720168948173523,-0.03921908140182495,0.9554180891243411,0.26353258964182136,-0.07167658543394945,0.11220169951933971
1719102681500589300,0.30058935546875,0.28942370414733887,0.4228200614452362,0.9158807396888733,-0.1969890147447586,-0.48788997530937195,-0.8503873944282532,0.0006694644689559937,0.07315614819526672,-0.046142756938934326,0.9547042989226334,0.2642018113593894,-0.07073698063054173,0.117189247417376
1719102681510643500,0.3106435546875,0.32087910175323486,0.48604992032051086,0.9168705940246582,-0.1976499706506729,-0.4887193739414215,-0.8497574925422668,-0.0032624751329421997,0.0827745795249939,-0.06334370374679565,0.9538972641698639,0.2650951748810856,-0.06961175662196803,0.12230521259360862
1719102681520698400,0.320698486328125,0.3289749324321747,0.5755582451820374,0.8907536268234253,-0.19750969111919403,-0.48971039056777954,-0.8492193818092346,-0.0070038288831710815,0.08478796482086182,-0.07686704397201538,0.9530816548901491,0.26600833247081346,-0.06804314181957342,0.12745530860897608
1719102681530753300,0.330753173828125,0.275955468416214,0.6144092082977295,0.8874476552009583,-0.19676439464092255,-0.4905796945095062,-0.8488906621932983,-0.024259135127067566,0.084116131067276,-0.08752596378326416,0.9522921698643668,0.2667912215105854,-0.06615978591884851,0.1326083829788478
1719102681540807400,0.340807373046875,0.18433235585689545,0.6219906806945801,0.925281286239624,-0.19593867659568787,-0.4907744824886322,-0.848969042301178,-0.009536147117614746,0.05324399471282959,-0.06184333562850952,0.9515672305778711,0.2671847250523066,-0.06424789089924932,0.13785650208990544
1719102681550862300,0.3508623046875,0.11316657066345215,0.611911952495575,0.9271340370178223,-0.19522400200366974,-0.4901892840862274,-0.8494716286659241,0.016391023993492126,0.020020276308059692,-0.023636281490325928,0.9509117090152281,0.2671468012683778,-0.062424108491504766,0.143187875542165
1719102681560916500,0.36091650390625,0.07560374587774277,0.6056128144264221,0.8799958229064941,-0.19444480538368225,-0.4892275035381317,-0.8502044677734375,0.030244991183280945,0.01921108365058899,-0.0144195556640625,0.950310589929712,0.2668714728055351,-0.06064135038636828,0.14836462749927853
1719102681570971400,0.370971435546875,0.06253811717033386,0.6025320291519165,0.8610554337501526,-0.19354893267154694,-0.4881383180618286,-0.8510345220565796,0.041357800364494324,0.03171747922897339,-0.02666628360748291,0.9497363935972959,0.26649131071168763,-0.05886522122754856,0.15335592487803107
1719102681581026300,0.3810263671875,0.06916086375713348,0.5986291766166687,0.8328658938407898,-0.19255180656909943,-0.4870598018169403,-0.8518782258033752,0.04972955584526062,0.04041984677314758,-0.045124948024749756,0.9491593834796299,0.2660888542188649,-0.05707543884342286,0.15822614622490475
1719102681591080400,0.39108056640625,0.07777003943920135,0.5987588763237,0.8253916501998901,-0.19146692752838135,-0.4860823154449463,-0.8526806831359863,0.05831874907016754,0.04160907864570618,-0.05303525924682617,0.9485644002961249,0.26571641518243233,-0.055266976966985015,0.16299021444486653
1719102681601135600,0.401135498046875,0.08485005795955658,0.5975817441940308,0.83503258228302,-0.19036594033241272,-0.48519906401634216,-0.8534299731254578,0.0641147643327713,0.03236404061317444,-0.043390095233917236,0.9479286829208642,0.2653844344855735,-0.05344270372925061,0.16776832361479052
1719102681611190300,0.411190185546875,0.04896414652466774,0.6247822046279907,0.8506778478622437,-0.18920740485191345,-0.48418301343917847,-0.8542642593383789,0.07095180451869965,0.010061949491500854,-0.03745943307876587,0.9472776074629485,0.26496572952586384,-0.05158532143265915,0.1726188630552967
1719102681621244400,0.421244384765625,0.06044130399823189,0.6386900544166565,0.8432673215866089,-0.18786701560020447,-0.4830491840839386,-0.8552014231681824,0.06311118602752686,-0.020673900842666626,-0.030098259449005127,0.9466229884519696,0.26445189438476124,-0.049643594405789214,0.17749822025122522
1719102681631299600,0.431299560546875,0.06022641435265541,0.6345725059509277,0.8333994746208191,-0.1864374428987503,-0.48200488090515137,-0.8561030030250549,0.06795297563076019,-0.016331851482391357,-0.02051442861557007,0.9459393708038346,0.2639635765329545,-0.047662637507008394,0.18234620734796875
1719102681641353500,0.441353515625,0.04782300814986229,0.616385817527771,0.8072733283042908,-0.18501800298690796,-0.48094379901885986,-0.8570072650909424,0.09158845245838165,-0.01688939332962036,-0.007128536701202393,0.9452542306255088,0.2634491082292754,-0.04572690067054793,0.1870777041286199
1719102681651408400,0.451408447265625,0.049390461295843124,0.5873176455497742,0.7989200353622437,-0.18368852138519287,-0.4799124300479889,-0.8578709959983826,0.10928668081760406,-0.017295151948928833,0.004706263542175293,0.9445555754185526,0.26294489986069547,-0.04386902711745454,0.1917037494487313
1719102681661463600,0.461463623046875,0.09843363612890244,0.577829897403717,0.8370711207389832,-0.18257376551628113,-0.479004442691803,-0.8586161136627197,0.11664056777954102,-0.023848921060562134,0.02157992124557495,0.9437999872115055,0.26252383393269507,-0.04210929545081942,0.1963407756075559
1719102681671517400,0.471517333984375,0.18754740059375763,0.5836923122406006,0.8288310766220093,-0.18161730468273163,-0.47872182726860046,-0.8589764833450317,0.09410816431045532,-0.012382268905639648,0.04292118549346924,0.9428939036695079,0.26245962848060184,-0.040332461820364277,0.20109538758646098
1719102681681572400,0.481572265625,0.2472887635231018,0.6138616800308228,0.8566131591796875,-0.18050915002822876,-0.4790714681148529,-0.859015166759491,0.056409433484077454,-0.00945386290550232,0.05715048313140869,0.9418662985407233,0.26271349682400325,-0.03839333451311822,0.2059018164830052
1719102681691627500,0.49162744140625,0.27735984325408936,0.6347014307975769,0.8936293721199036,-0.17938363552093506,-0.47976696491241455,-0.8588626980781555,0.03428782522678375,-0.02198776602745056,0.05841714143753052,0.9407149604413654,0.26314978506660386,-0.036343197224550594,0.21091877065838097
1719102681701681400,0.501681396484375,0.3075734078884125,0.6712179183959961,0.9187840223312378,-0.17810116708278656,-0.4806959927082062,-0.8586100935935974,0.020401597023010254,-0.03262487053871155,0.04800218343734741,0.9394714154098519,0.2636849583950441,-0.03413487690915493,0.21609819767630734
1719102681711736300,0.511736328125,0.33786433935165405,0.7061803936958313,0.931750476360321,-0.17660632729530334,-0.4818323254585266,-0.8582819104194641,0.010941699147224426,-0.019678235054016113,0.02380925416946411,0.9381288583334336,0.26429590497672395,-0.03172894690065719,0.2214840296595802
1719102681721790200,0.521790283203125,0.3613148033618927,0.7530741691589355,0.8986759185791016,-0.1747429072856903,-0.48324835300445557,-0.8578670620918274,0.013167604804039001,-0.017590850591659546,0.013308346271514893,0.9367439859492528,0.2649888134458008,-0.029109883899251034,0.22681312707163978
1719102681731845400,0.531845458984375,0.353491872549057,0.775458812713623,0.8660784959793091,-0.17245574295520782,-0.4848204255104065,-0.8574427962303162,0.006882652640342712,-0.029797405004501343,0.017858445644378662,0.9353472798335969,0.2656844796165752,-0.02627480975286037,0.23204892554773185
1719102681741900500,0.541900634765625,0.27202150225639343,0.7984163165092468,0.8114283084869385,-0.1697828471660614,-0.4860851466655731,-0.8572601675987244,0.014341577887535095,-0.05703616142272949,0.039923131465911865,0.934036813295987,0.2661301713203224,-0.023337582251511748,0.2370766956115598
1719102681751954400,0.551954345703125,0.18463052809238434,0.8277822136878967,0.7369519472122192,-0.16654843091964722,-0.48674461245536804,-0.8575204610824585,0.021376341581344604,-0.08584141731262207,0.0682138204574585,0.9328899813828513,0.26613636527671675,-0.020278142569840986,0.24181941830756565
1719102681762009300,0.56200927734375,0.1164189800620079,0.8619377613067627,0.661121129989624,-0.16268382966518402,-0.48690423369407654,-0.8581714630126953,0.02007521688938141,-0.10361084342002869,0.07376283407211304,0.9319117248491875,0.2657496722242484,-0.017070288603836938,0.24622388027464762
1719102681772063500,0.5720634765625,0.09677135199308395,0.9048213362693787,0.6510235071182251,-0.15822303295135498,-0.4867776334285736,-0.8590768575668335,0.028019800782203674,-0.10839137434959412,0.07070094347000122,0.9310204197293078,0.2650946672420934,-0.01365281484858539,0.25047831053592895
1719102681782118400,0.582118408203125,0.07308492809534073,0.9175440669059753,0.6553236842155457,-0.15353719890117645,-0.486457496881485,-0.8601077795028687,0.04536767303943634,-0.10733821988105774,0.05087316036224365,0.9301366378482511,0.2642783403503012,-0.010151820137857977,0.2547541997522155
1719102681792173300,0.59217333984375,0.09463144093751907,0.9447186589241028,0.6916368007659912,-0.1487194001674652,-0.48616188764572144,-0.861120879650116,0.05892147123813629,-0.10050797462463379,0.04068630933761597,0.9291994373770576,0.26343220268170864,-0.006560814594575805,0.2591307854374142
1719102681802227500,0.6022275390625,0.14942890405654907,0.9385356307029724,0.7557559013366699,-0.14413173496723175,-0.48617231845855713,-0.8618947267532349,0.08585843443870544,-0.07263502478599548,0.025774121284484863,0.9281063727878182,0.2627618323085847,-0.0029754158546136025,0.26375353204480867
1719102681812282400,0.612282470703125,0.19664187729358673,0.9290342330932617,0.8241882920265198,-0.13987846672534943,-0.48655322194099426,-0.8623804450035095,0.11226008832454681,-0.05707159638404846,0.020705580711364746,0.9268278239539391,0.26231556869406647,0.0005778454421340389,0.2686641874868691
1719102681822337300,0.622337158203125,0.22347961366176605,0.9658841490745544,0.879685640335083,-0.13583126664161682,-0.48721596598625183,-0.8626531958580017,0.11567443609237671,-0.04908466339111328,0.019009947776794434,0.9253737347670252,0.26202314960977313,0.004157440204115013,0.2738797051165865
1719102681832391400,0.632391357421875,0.19815440475940704,0.9963659048080444,0.9349946975708008,-0.13177071511745453,-0.48787349462509155,-0.8629113435745239,0.09830822050571442,-0.05149415135383606,0.02196890115737915,0.9237979873499405,0.261692851975185,0.007822372950726601,0.27937962816665923
1719102681842446300,0.6424462890625,0.11173509061336517,1.1441763639450073,0.9480308890342712,-0.12734729051589966,-0.48810961842536926,-0.8634417653083801,0.08300527930259705,-0.06618112325668335,0.021599113941192627,0.9221804566419672,0.2610421076473842,0.011667574542323962,0.2851388798927637
1719102681852500500,0.65250048828125,0.05416082218289375,1.2811062335968018,0.9282450079917908,-0.12084412574768066,-0.4870336353778839,-0.8649826645851135,0.07953860610723495,-0.0533563494682312,0.03046417236328125,0.9207591590890685,0.25931017216481345,0.016337571608715105,0.29102225552238936
1719102681862555400,0.662555419921875,0.2193247377872467,1.2039419412612915,1.1350029706954956,-0.11514747142791748,-0.48730385303497314,-0.8656073212623596,0.05295267701148987,-0.03315812349319458,0.03356081247329712,0.9188844664599993,0.25837290797517026,0.020971016210762642,0.2974138312048853
1719102681872610300,0.6726103515625,0.1367165744304657,1.1457109451293945,1.203055500984192,-0.11069770902395248,-0.4875143766403198,-0.8660691380500793,0.12241648137569427,-0.09650048613548279,-0.033695876598358154,0.916737006919517,0.2575537481027222,0.02512954152403118,0.3043482557653129
1719102681882664400,0.68266455078125,0.10798081010580063,1.1318297386169434,1.232270359992981,-0.10675134509801865,-0.4872516989707947,-0.8667121529579163,0.17956632375717163,-0.06438401341438293,0.01090770959854126,0.9145385435367387,0.2565225304886178,0.02898477008095416,0.31140875744350627
1719102681892717800,0.6927177734375,0.0625004842877388,1.114670991897583,1.2303833961486816,-0.10298580676317215,-0.48670223355293274,-0.8674761056900024,0.17084167897701263,-0.042945533990859985,0.024046599864959717,0.9123050151225792,0.25532918932959964,0.032694704216735315,0.3184925601062195
1719102681902773000,0.70277294921875,-0.006491098552942276,1.104051113128662,1.2469019889831543,-0.09935493022203445,-0.4857287108898163,-0.8684447407722473,0.16452524065971375,-0.028324604034423828,0.03154587745666504,0.9100628387831653,0.2538969820208633,0.036248621076449036,0.32558869682249
1719102681912827000,0.712826904296875,-0.09852875024080276,1.0722705125808716,1.283297061920166,-0.09599529206752777,-0.48403942584991455,-0.8697648048400879,0.17109906673431396,-0.02084335684776306,0.034895360469818115,0.9078303299238742,0.2521004965335998,0.039534169108199534,0.33275604936547853
1719102681922881800,0.7228818359375,-0.16617783904075623,1.0247153043746948,1.295616865158081,-0.09304892271757126,-0.4816177189350128,-0.8714277148246765,0.17353905737400055,-0.006632953882217407,0.035124003887176514,0.9056010080116861,0.24996435595456934,0.04247309081845138,0.3400010181949328
1719102681932936000,0.73293603515625,-0.17275770008563995,0.9708977937698364,1.3255034685134888,-0.09057977795600891,-0.4789358675479889,-0.8731642365455627,0.1628912091255188,0.02185887098312378,0.04531383514404297,0.9033260303630751,0.24775684567087092,0.04510472638992284,0.34725241446436156
1719102681942990800,0.742990966796875,-0.15045399963855743,0.9214282631874084,1.309650182723999,-0.08864830434322357,-0.4763663113117218,-0.8747665882110596,0.15308620035648346,0.04623636603355408,0.04433751106262207,0.900965316985064,0.24569041966314337,0.047464939089701896,0.3544640294977557
1719102681953045800,0.753045654296875,-0.36282122135162354,1.0654141902923584,0.9698241353034973,-0.08596155792474747,-0.4733979105949402,-0.8766441941261292,0.14833950996398926,0.06014415621757507,0.05477529764175415,0.8988650624537283,0.24328427751111545,0.049906542431337846,0.36105919176736057
1719102681963100000,0.763099853515625,-0.7459267973899841,0.796989381313324,1.0022624731063843,-0.08176443725824356,-0.4677383303642273,-0.8800769448280334,0.14176201820373535,0.023371875286102295,0.07180362939834595,0.8976195227546226,0.2392546623759733,0.052141402474528364,0.3664938314243812
1719102681973154800,0.77315478515625,-1.082416296005249,0.4658855199813843,1.5121723413467407,-0.0821453109383583,-0.45835837721824646,-0.8849631547927856,0.1522289514541626,-0.09857210516929626,0.10691744089126587,0.8961445784792179,0.23418289039929513,0.05173788434470768,0.3733717760859592
1719102681983209700,0.783209716796875,-1.56346595287323,1.4461638927459717,0.09715063869953156,-0.07941067218780518,-0.44608452916145325,-0.8914608955383301,0.21089568734169006,-0.17824405431747437,0.19006013870239258,0.8955121370691189,0.22711873687817455,0.05183272613968568,0.37919447666748624
1719102681993263900,0.793263916015625,-2.4890358448028564,1.6536028385162354,-0.7112872004508972,-0.06402365118265152,-0.4284549057483673,-0.9012920260429382,0.03426903486251831,-0.4677242636680603,0.14657706022262573,0.8981425642390605,0.21517350542883182,0.05526605383759378,0.3794548046689347
1719102682003318800,0.80331884765625,-2.972754955291748,0.1527196317911148,0.7435933947563171,-0.053691666573286057,-0.40338587760925293,-0.9134533405303955,0.06670743972063065,-0.6349442005157471,0.2179577350616455,0.9010563910343086,0.20063523239102674,0.05494379372152354,0.38055773811471655
1719102682013373000,0.813373046875,-2.962939977645874,0.1810319572687149,2.2122461795806885,-0.05958479270339012,-0.3745800256729126,-0.9252780079841614,0.3854210078716278,-0.3178485035896301,0.3465426564216614,0.900959630068708,0.18731246192712056,0.047697240564731645,0.3884721973921551
1719102682023427800,0.823427734375,-2.3184449672698975,0.42047223448753357,2.503685474395752,-0.0655546486377716,-0.34817102551460266,-0.935136079788208,0.1982908844947815,0.004421055316925049,0.3103802800178528,0.8985404368272684,0.17522459080973846,0.04157274625725033,0.4002412993125334
1719102682033482800,0.833482666015625,-1.603153944015503,0.8410434126853943,2.4535269737243652,-0.06783869117498398,-0.32809019088745117,-0.9422073364257812,-0.10077089071273804,0.07885318994522095,0.15828710794448853,0.8950492226810391,0.16559855925577813,0.03838534298630883,0.41229898222602857
1719102682043537000,0.843536865234375,-1.0498535633087158,0.8457193970680237,2.6779000759124756,-0.06785568594932556,-0.3138798475265503,-0.9470348954200745,-0.16166698932647705,0.12644094228744507,0.15238767862319946,0.890571444506538,0.15837061992451631,0.037434088714919,0.4247351783989447
1719102682053592000,0.853592041015625,-0.749927282333374,0.6737087368965149,2.7682909965515137,-0.06915263086557388,-0.30362582206726074,-0.9502785205841064,0.021972477436065674,0.13504675030708313,0.16060566902160645,0.8851674903921847,0.15332717657255848,0.03676296685436913,0.4377416945063821
1719102682063646700,0.863646728515625,-0.796178936958313,0.6129646897315979,2.645677089691162,-0.07120781391859055,-0.29449501633644104,-0.9529963731765747,0.16529354453086853,0.06005901098251343,0.1638880968093872,0.879580185026195,0.14905410663683707,0.03584235508870204,0.45037426168119654
1719102682073700900,0.873700927734375,-1.031409740447998,0.6217544674873352,2.646284580230713,-0.07295792549848557,-0.28387290239334106,-0.956082284450531,0.13995930552482605,-0.04637303948402405,0.147885262966156,0.8740984776842812,0.1441057909189044,0.03453096394245029,0.4625936705674482
1719102682083756000,0.883756103515625,-1.303161382675171,0.6553358435630798,2.73228120803833,-0.07430172711610794,-0.2706674635410309,-0.959801197052002,0.06487182527780533,-0.12822777032852173,0.12299394607543945,0.8684808361131188,0.13795486534595178,0.032677896522242365,0.4750176200422562
1719102682093810000,0.893809814453125,-1.6353381872177124,0.7083527445793152,2.7549490928649902,-0.07494775950908661,-0.25447142124176025,-0.9641717076301575,0.017696812748908997,-0.17916807532310486,0.10024964809417725,0.8627086835113961,0.1303777544404429,0.030261781054879602,0.4876673942811686
1719102682103864800,0.90386474609375,-1.9117916822433472,0.6775565147399902,2.7121429443359375,-0.07487518340349197,-0.23504258692264557,-0.969096839427948,0.0010379254817962646,-0.17351147532463074,0.1049458384513855,0.8569479487081576,0.12130991901493231,0.027119784535729524,0.5001885637744432
1719102682113920000,0.913919921875,-1.8853265047073364,0.5897696614265442,2.7025041580200195,-0.07477952539920807,-0.21429550647735596,-0.97390216588974,0.016307875514030457,-0.09805187582969666,0.10798114538192749,0.8511010210763037,0.11181200082269334,0.023387766629397736,0.5124236732463425
1719102682123974000,0.923973876953125,-1.7076616287231445,0.5091789364814758,2.6705102920532227,-0.07491303235292435,-0.19463926553726196,-0.9780099987983704,0.043251074850559235,-0.019624635577201843,0.07026463747024536,0.8450070856259406,0.10300959662358343,0.019596313909735298,0.5243738752161872
1719102682134028800,0.93402880859375,-1.528473973274231,0.45627284049987793,2.5982487201690674,-0.07508256286382675,-0.1767359972000122,-0.9813903570175171,0.04258137196302414,0.0510951429605484,0.02118527889251709,0.8387474081408998,0.09512221638237708,0.0160185621988899,0.5359085632932793
1719102682144084000,0.944083984375,-1.3488153219223022,0.4281708896160126,2.552130937576294,-0.07507665455341339,-0.16059324145317078,-0.9841611981391907,0.015185937285423279,0.11384031176567078,0.007369816303253174,0.8323743480811382,0.0880686054428693,0.012779313712690641,0.5470224103870079
1719102682154137900,0.954137939453125,-1.2181841135025024,0.4148561656475067,2.5567331314086914,-0.07484515011310577,-0.14604541659355164,-0.9864425659179688,-0.011534824967384338,0.14448902010917664,0.01636505126953125,0.8258083801201791,0.08173519134749506,0.009903240967949126,0.5579084441823798
1719102682164193000,0.964193115234375,-1.2174018621444702,0.42249757051467896,2.58443546295166,-0.07428614050149918,-0.1321495622396469,-0.9884422421455383,-0.023965172469615936,0.1376732587814331,0.04592210054397583,0.8189941186034315,0.07567708140418988,0.007201301606252768,0.5687441062341294
1719102682174247000,0.974246826171875,-1.3517911434173584,0.41855713725090027,2.6285383701324463,-0.07334626466035843,-0.11754531413316727,-0.9903551936149597,-0.027056537568569183,0.10845108330249786,0.08886593580245972,0.8119213343303704,0.06930955655512103,0.004311000759699496,0.5796217310422125
1719102682184301800,0.9843017578125,-1.5606058835983276,0.3776933252811432,2.6782214641571045,-0.07225507497787476,-0.1011088564991951,-0.9922480583190918,-0.019984275102615356,0.060810402035713196,0.1220698356628418,0.8045928828643913,0.062252289572573095,0.0007902381562736817,0.5905543242834057
1719102682194357000,0.99435693359375,-1.7346924543380737,0.31146878004074097,2.7439258098602295,-0.07131734490394592,-0.08269724994897842,-0.994019627571106,-0.0040610432624816895,0.004267081618309021,0.12371933460235596,0.7969556708282567,0.054566933600635636,-0.0035554393881604314,0.6015574678978584
1719102682204411000,1.004410888671875,-2.005704402923584,0.20607952773571014,2.7960410118103027,-0.07071130722761154,-0.062053557485342026,-0.9955648183822632,0.01915188878774643,-0.030033227056264877,0.07106530666351318,0.7889840055156979,0.046241279041690155,-0.008907597534123053,0.6126063642545883
1719102682214465800,1.0144658203125,-2.1483521461486816,0.03411281481385231,2.8647842407226562,-0.07093724608421326,-0.03910571336746216,-0.9967139363288879,0.06292641162872314,0.006863892078399658,0.04374152421951294,0.7806360019998817,0.03744590825041047,-0.01551905105206544,0.6236700441637097
1719102682224521000,1.02452099609375,-2.073669195175171,-0.1388496458530426,2.957435369491577,-0.07225774228572845,-0.01578296720981598,-0.997261106967926,0.12329842150211334,0.07198108732700348,0.08881384134292603,0.7717732657106963,0.0290655741826957,-0.022904992066102074,0.6348200922700623
1719102682234574800,1.034574951171875,-1.9739238023757935,-0.28573018312454224,3.045733690261841,-0.07451935112476349,0.006677286699414253,-0.9971972107887268,0.17127536237239838,0.0986846536397934,0.1154833436012268,0.7623413521834015,0.02155818556793935,-0.03060455538397407,0.6460913901190403
1719102682244629800,1.044629638671875,-1.9789105653762817,-0.3871614634990692,3.1130340099334717,-0.07739026099443436,0.028721332550048828,-0.9965870976448059,0.17846450209617615,0.09754514694213867,0.1563161015510559,0.7523678525361462,0.014660498607159353,-0.038620250689416574,0.6574466357493962
1719102682254684000,1.054683837890625,-2.0975615978240967,-0.424387127161026,3.150937080383301,-0.08021746575832367,0.0515228733420372,-0.9954448938369751,0.13746847212314606,0.0712951123714447,0.2046734094619751,0.7419384172818267,0.007727610784859413,-0.04709388345608351,0.6687672896830444
1719102682264738800,1.06473876953125,-2.253441572189331,-0.43134570121765137,3.1087961196899414,-0.082541823387146,0.07587696611881256,-0.9936949014663696,0.06876315921545029,0.016667582094669342,0.25056135654449463,0.7312509025421329,0.0003141462069649809,-0.056146741935906366,0.6797937268338624
1719102682274794000,1.0747939453125,-2.320028781890869,-0.4025886058807373,3.0543205738067627,-0.08397620916366577,0.10130490362644196,-0.991304874420166,0.01682230830192566,-0.03613462299108505,0.24800348281860352,0.7204665501517399,-0.007539768105618079,-0.065503621565069,0.6903480960052105
1719102682284847900,1.084847900390625,-2.3404314517974854,-0.4110492169857025,2.97123384475708,-0.08451525866985321,0.12708325684070587,-0.9882848858833313,0.005459509789943695,-0.04024548828601837,0.2245977520942688,0.7096512159159852,-0.015587127872642532,-0.07493061791775162,0.7003839274818188
1719102682294902800,1.09490283203125,-2.296546220779419,-0.4585235118865967,2.8531579971313477,-0.08470345288515091,0.152597114443779,-0.9846519231796265,0.046556517481803894,0.03630666434764862,0.21499866247177124,0.6989201732838167,-0.023444649925408147,-0.08440603097645798,0.7098144585472536
1719102694662160000,13.462159912109374,1.0466947555541992,-3.901130199432373,-3.21559739112854,0.36774328351020813,-0.7824099659919739,-0.5025928616523743,0.8644648790359497,1.710571527481079,-0.577378511428833,-0.5810943043009007,-0.4599805294744098,0.1926693837034627,0.643137500571469
1719102694672215000,13.472215087890625,-0.16194811463356018,-4.591806411743164,-3.6187002658843994,0.3747096061706543,-0.7712233066558838,-0.514594316482544,0.5267949104309082,1.6049177646636963,-0.6965720653533936,-0.563895761078696,-0.4511117568854623,0.19799249217529497,0.6628112041836985
1719102694682270000,13.48227001953125,-1.4227155447006226,-5.543612003326416,-3.498154878616333,0.37408238649368286,-0.7539738416671753,-0.539986789226532,0.42454731464385986,1.7082738876342773,-0.6349552273750305,-0.5484766861741686,-0.43491778823194804,0.20212157286077048,0.6849574042785291
1719102694692325000,13.4923251953125,-0.942101001739502,-5.685258865356445,-4.450247764587402,0.37238237261772156,-0.7313171029090881,-0.5714074969291687,0.673241376876831,2.023568630218506,-0.3841589093208313,-0.5316254025420903,-0.41549387784077213,0.20411044843400872,0.7092799741559437
1719102694702379000,13.50237890625,0.002740616211667657,-5.822481155395508,-5.199324607849121,0.3736201822757721,-0.7102444767951965,-0.5966243743896484,0.5488956570625305,1.9747403860092163,-0.5569400787353516,-0.5088337413388611,-0.39821361634997654,0.20763843925880784,0.7344388103080477
1719102694712434200,13.51243408203125,0.9264913201332092,-6.258755683898926,-5.739492416381836,0.3766929507255554,-0.6910062432289124,-0.6169381737709045,0.5248420238494873,2.0048184394836426,-0.6572012901306152,-0.48095546760404456,-0.38252459132307287,0.21261668208774107,0.7597044376546648
1719102694722489000,13.522489013671875,1.6033471822738647,-7.054344177246094,-6.685161113739014,0.377946138381958,-0.6758744120597839,-0.6327325701713562,0.6846758723258972,2.160508871078491,-0.3546331524848938,-0.4471506448776162,-0.3668408173371724,0.22149836686393912,0.7851258497780774
1719102694732543000,13.53254296875,1.5777009725570679,-7.395673751831055,-7.359145641326904,0.3785991966724396,-0.6589477062225342,-0.6499619483947754,0.9592151045799255,1.9937407970428467,-0.11538839340209961,-0.407831540908254,-0.34909983137572337,0.23053924563642794,0.8115752128258188
1719102694742598100,13.54259814453125,1.5911098718643188,-7.511924743652344,-8.710418701171875,0.3814322054386139,-0.6395252346992493,-0.6674705147743225,1.073279619216919,1.7248677015304565,-0.03034442663192749,-0.3632277285368498,-0.33093996347778265,0.23820888117287325,0.8377355704395212
1719102694752653000,13.552653076171875,0.7321566939353943,-7.513740539550781,-9.742692947387695,0.38906610012054443,-0.6109575629234314,-0.689462423324585,1.187334656715393,1.1727404594421387,-0.002355813980102539,-0.3124640922944609,-0.3120464797129732,0.24061544526680173,0.8643479582003508
1719102694762708000,13.5627080078125,0.9642062187194824,-7.603617191314697,-10.837170600891113,0.396530419588089,-0.5760559439659119,-0.7147888541221619,1.3395076990127563,0.9697632789611816,0.16200876235961914,-0.2569893506646103,-0.29203911313693354,0.23941327293592213,0.8895790353414642
1719102694772762000,13.57276220703125,2.039393663406372,-7.645328521728516,-12.005497932434082,0.4050697088241577,-0.5399758219718933,-0.7377971410751343,1.7166037559509277,1.0510079860687256,0.20363271236419678,-0.1938170512913636,-0.2727527553137196,0.2381330824291086,0.9117748772435288
1719102694782817000,13.582817138671874,4.5898871421813965,-7.624472141265869,-12.497331619262695,0.41269952058792114,-0.5141224265098572,-0.7519024014472961,2.001164674758911,1.373375415802002,0.20681267976760864,-0.12351507542308884,-0.2547963505647781,0.24316172612108922,0.9277366128336515
1719102694792872000,13.592871826171875,6.939046859741211,-7.781148910522461,-12.846863746643066,0.41937997937202454,-0.5045180916786194,-0.7547065019607544,2.381431818008423,1.6886000633239746,0.2914801836013794,-0.04710011729145446,-0.2371263428768978,0.2577165908631896,0.935486402647925
1719102694802926000,13.602926025390625,9.752900123596191,-8.218254089355469,-12.4027099609375,0.4238043427467346,-0.5135013461112976,-0.7461274862289429,2.7905664443969727,1.8212864398956299,0.6312440633773804,0.03270068797711814,-0.2170284719725453,0.2825506906464815,0.9338063959938014
1719102694812981200,13.612981201171875,12.728241920471191,-8.793079376220703,-11.537829399108887,0.42447006702423096,-0.545653760433197,-0.7225559949874878,3.241988182067871,1.7859797477722168,1.0896672010421753,0.11323676048382664,-0.19111033507108577,0.3196855359137817,0.9211164418723372
1719102694823036000,13.623035888671875,14.13452434539795,-9.247457504272461,-10.067374229431152,0.4225001931190491,-0.5951452255249023,-0.683590292930603,3.5347752571105957,1.2995977401733398,1.4426236152648926,0.1902723456581049,-0.15798043464085723,0.3650301680190154,0.8975475430322022
1719102694833091000,13.633091064453126,14.016698837280273,-9.72201919555664,-8.6187162399292,0.41795027256011963,-0.6500763893127441,-0.634600818157196,3.5129120349884033,0.7092958688735962,1.9230377674102783,0.2598994558300404,-0.11803576316358999,0.41081280118195374,0.8658825589720877
1719102694843145000,13.64314501953125,12.65360164642334,-9.66691780090332,-8.007460594177246,0.41433650255203247,-0.697384774684906,-0.5847902894020081,3.3169562816619873,-0.095675528049469,2.490475654602051,0.32279941721448935,-0.07484148134929396,0.4494481043703884,0.8295755857512878
1719102694853200000,13.653199951171874,11.330306053161621,-9.228915214538574,-7.448571681976318,0.4167114496231079,-0.7326700687408447,-0.5380948185920715,2.6414551734924316,-0.8680989742279053,2.8255248069763184,0.37966233593900833,-0.033318337331298395,0.4794188838599856,0.7905085967763427
1719102694863255000,13.663255126953125,10.020724296569824,-8.735661506652832,-6.68140983581543,0.4229145050048828,-0.7583833932876587,-0.49598175287246704,1.5418682098388672,-1.1440061330795288,2.8698220252990723,0.43018904566726957,0.005977101498374911,0.501969513497159,0.75028542202469
1719102694873310200,13.673310302734375,8.081360816955566,-7.520816802978516,-5.680251121520996,0.4313264489173889,-0.7755114436149597,-0.4610200822353363,0.5339139699935913,-1.144852876663208,2.9594788551330566,0.4728784142439991,0.040815806544490935,0.5175171805816472,0.7119663311593069
1719102694883363800,13.68336376953125,6.092202663421631,-5.782783508300781,-4.464920997619629,0.4412049949169159,-0.7849974036216736,-0.43487605452537537,-0.307492196559906,-1.2666230201721191,2.761261463165283,0.5062847398954753,0.06818037644912776,0.5271749274836355,0.6790535842590345
1719102694893419000,13.6934189453125,4.270981788635254,-3.8106682300567627,-2.872339963912964,0.44976305961608887,-0.790621280670166,-0.4154890477657318,-1.1976420879364014,-1.4386115074157715,2.360755681991577,0.5294076293884302,0.08795532539847081,0.5334035424529753,0.6538134955649901
1719102694903474400,13.703474365234374,3.8650691509246826,-2.387173891067505,-1.938781499862671,0.45594966411590576,-0.7960860133171082,-0.3979409337043762,-1.8812731504440308,-1.185054063796997,1.7946693897247314,0.5432108975867493,0.10206086026717177,0.5390854409530109,0.635525287156292
1719102694913528300,13.7135283203125,4.332550525665283,-1.9493749141693115,-1.6281589269638062,0.4617902636528015,-0.80396968126297,-0.37467655539512634,-2.070112466812134,-0.49832218885421753,0.8281829953193665,0.5524142869958986,0.1154042734936809,0.5471229959938917,0.6182044263321321
1719102694923583200,13.723583251953125,4.084705352783203,-1.6850788593292236,-1.3893706798553467,0.4675517976284027,-0.8123855590820312,-0.348460853099823,-1.6725536584854126,0.2942734360694885,-0.289173424243927,0.5594118978405985,0.12860990175826922,0.5560836895317445,0.6010729659787768
1719102694933638400,13.733638427734375,1.8870054483413696,-1.8188576698303223,-1.001694917678833,0.4715404510498047,-0.817438542842865,-0.33082303404808044,-0.9478435516357422,0.8178200721740723,-0.8297757506370544,0.5657306149053447,0.13926573036114598,0.5614209936622997,0.5876737415558698
1719102694943693000,13.743693115234375,-0.1364670991897583,-2.3775370121002197,-0.6674332022666931,0.47127094864845276,-0.8160502314567566,-0.33461278676986694,-0.31723350286483765,0.8037517070770264,-0.8874331712722778,0.573506219788431,0.1452575644946018,0.5582059187124413,0.5817189990363941
1719102694953747200,13.753747314453125,-1.4121896028518677,-2.5790398120880127,-0.29914888739585876,0.46663206815719604,-0.8110724687576294,-0.35272639989852905,0.10836488008499146,0.6204597353935242,-0.7788348197937012,0.5824788110992222,0.1489672428930298,0.549040588355506,0.5805872364768992
1719102694963802400,13.76380224609375,-1.8612866401672363,-2.4494664669036865,0.03175758197903633,0.45840519666671753,-0.8040797114372253,-0.3785768449306488,0.39308100938796997,0.6238124370574951,-0.7280058264732361,0.5910597187682541,0.15087307691050605,0.5366087021663396,0.5830409658588308
1719102694973857300,13.773857177734374,-1.2618680000305176,-2.1828255653381348,0.4307475984096527,0.44744744896888733,-0.7989321351051331,-0.4018682539463043,0.547257661819458,1.0261814594268799,-0.3718133568763733,0.597802525845871,0.153605403918206,0.5248535554473668,0.5861451360958424
1719102694983911200,13.7839111328125,-0.5815179944038391,-2.0303256511688232,0.8651699423789978,0.43366965651512146,-0.797907292842865,-0.4186578392982483,0.5888980627059937,1.2232918739318848,-0.06759396195411682,0.6020795196768092,0.15860492332786025,0.5152820180873257,0.5889219107930765
1719102694993966300,13.79396630859375,0.37624555826187134,-2.0035386085510254,1.4023703336715698,0.41587936878204346,-0.8024818301200867,-0.4278635084629059,0.543608546257019,1.1779396533966064,0.13048496842384338,0.6039872250410353,0.16735270590830678,0.5079973598989768,0.5908732095312953
1719102695004021200,13.804021240234375,0.5371788144111633,-2.0864720344543457,1.7991400957107544,0.39387446641921997,-0.8113269805908203,-0.43198540806770325,0.6461951732635498,0.9583302140235901,-0.14055490493774414,0.6038309717522753,0.17907018891098497,0.5019374100648825,0.5927738328835778
1719102695014076200,13.814076171875,-0.3253330886363983,-2.436553716659546,1.5617328882217407,0.36992764472961426,-0.8186957836151123,-0.4391931891441345,1.0275027751922607,0.7607277035713196,-0.2391209900379181,0.6041760390126737,0.19063513594057663,0.4940259581231841,0.5954559516885705
1719102695024130300,13.82413037109375,-1.613090991973877,-2.8516592979431152,1.2506868839263916,0.3465763330459595,-0.8192200064659119,-0.45690619945526123,1.4052547216415405,0.6796022057533264,0.071164071559906,0.6075351174213609,0.19901476215274175,0.4816015208631349,0.5994614203808212
1719102695034185200,13.834185302734374,-2.463028907775879,-3.1092188358306885,1.3459603786468506,0.3221031129360199,-0.8136441707611084,-0.4839760959148407,1.5814003944396973,0.6495664715766907,0.4873329997062683,0.6128582947399884,0.20463824524154964,0.46490337317517205,0.6053039424361826
1719102695044240100,13.844240234375,-2.214076042175293,-3.2832419872283936,1.712300419807434,0.29333680868148804,-0.8062880039215088,-0.5136662721633911,1.5526866912841797,0.5842726826667786,0.7646428942680359,0.6181513031726141,0.21064305267257427,0.4458658688138257,0.6121453508182917
1719102695054294300,13.854294189453125,-2.1365275382995605,-2.507080316543579,1.8008475303649902,0.26346924901008606,-0.8001915216445923,-0.5387741923332214,1.3157849311828613,0.4310508966445923,0.8158280253410339,0.6212156011330048,0.21701454538436796,0.42838951818051985,0.619256341134367
1719102695064349200,13.86434912109375,-2.6386749744415283,-1.6667864322662354,1.144435167312622,0.24011307954788208,-0.7905920147895813,-0.5633026957511902,1.0814812183380127,0.3090399503707886,0.6211487054824829,0.6233686521851733,0.21895446308961042,0.41280455848086084,0.6269471772186247
1719102695074404400,13.874404296875,-2.6767525672912598,-2.917424201965332,0.8076313734054565,0.221979022026062,-0.7762787342071533,-0.5900141000747681,0.987249493598938,0.3273041248321533,0.6492944955825806,0.6279190287075254,0.21818752723119644,0.39672051417852794,0.6330281654767609
1719102695084459300,13.884459228515626,-3.0722105503082275,-2.588444709777832,0.9589325189590454,0.199422225356102,-0.7604529857635498,-0.6180145144462585,1.2450510263442993,0.22842484712600708,0.3140442371368408,0.6337759398271227,0.21920691817729873,0.3780754768340384,0.6382281503187477
1719102695094513200,13.89451318359375,-2.569525957107544,-2.2605464458465576,1.2475355863571167,0.17441770434379578,-0.7456269264221191,-0.6431321501731873,1.2592065334320068,0.18001419305801392,-0.15024864673614502,0.6376845584240705,0.22099517888010164,0.3599931489806978,0.6441462639601445
1719102695104568300,13.904568359375,-2.2020809650421143,-1.8183865547180176,1.0884387493133545,0.15332943201065063,-0.7317529320716858,-0.6640991568565369,1.0561585426330566,0.07580810785293579,-0.5991454720497131,0.6398828527733325,0.22147737288515387,0.34481616757887407,0.6500764915655446
1719102695114623200,13.914623291015625,-1.8565492630004883,-1.4196338653564453,1.2105993032455444,0.1349036693572998,-0.7199564576148987,-0.6807816624641418,0.7183067798614502,-0.43046462535858154,-0.32469624280929565,0.6410615179207152,0.22199950262518536,0.3321526572681091,0.6553098259257464
1719102695124677000,13.924677001953125,-2.6051816940307617,-1.4734762907028198,0.6007905006408691,0.11841019243001938,-0.7065348625183105,-0.697701632976532,0.4630870223045349,-0.752312183380127,-0.5017460584640503,0.6427202787334796,0.22143999827791302,0.3195520553773256,0.6601223366665597
1719102695134732300,13.934732177734375,-3.761183261871338,-1.6501554250717163,0.3584875464439392,0.10347704589366913,-0.68350750207901,-0.722571849822998,0.03783462941646576,-0.68032306432724,-0.751610279083252,0.6473641821109781,0.21692420590865238,0.30275068555516504,0.6649853831964325
1719102695144787200,13.944787109375,-2.897397518157959,-1.0703065395355225,1.2230929136276245,0.0880887433886528,-0.659182071685791,-0.7468061447143555,-0.4007565677165985,-0.4076666831970215,-0.27202320098876953,0.6504839034783717,0.21163058124085743,0.28602347474541057,0.6710244527651958
1719102695154842400,13.95484228515625,-2.227564573287964,-0.6659930944442749,1.8957698345184326,0.07160264998674393,-0.6408156156539917,-0.7643483877182007,-0.5074699521064758,-0.420539915561676,-0.12583410739898682,0.648775946015431,0.2080744278896322,0.27300338776905486,0.6791642268192015
1719102695164896300,13.964896240234374,-1.902400016784668,-0.9913762211799622,1.6430151462554932,0.05367352068424225,-0.6264036297798157,-0.7776488065719604,-0.19750282168388367,-0.5044710040092468,-0.06359875202178955,0.645955507127965,0.2068861216034455,0.26148369229497953,0.6867066262713936
1719102695174951400,13.974951416015625,-2.07686185836792,-1.0509921312332153,1.6638867855072021,0.03498082235455513,-0.611238420009613,-0.7906730771064758,0.10733792185783386,-0.4056072235107422,0.18573838472366333,0.6435589019062735,0.20612529205755667,0.24935079637860683,0.6936631185098314
1719102695185006000,13.985006103515625,-2.296600341796875,-0.9058312773704529,1.5907751321792603,0.01724257878959179,-0.5945603251457214,-0.8038660883903503,0.15684497356414795,-0.18310385942459106,0.24707287549972534,0.6412927417991728,0.20467657717433843,0.23701151902725426,0.7004830739441519
1719102695195061200,13.995061279296875,-2.1142520904541016,-0.355007529258728,1.7424019575119019,0.002259620698168874,-0.5761722326278687,-0.8173251152038574,-0.15704473853111267,-0.3495021462440491,0.0761294960975647,0.6383918822776098,0.20151823910539293,0.2252283917849701,0.707897048195388
1719102695205115400,14.005115478515625,-1.9936621189117432,-0.4402451813220978,1.7401692867279053,-0.01048246305435896,-0.5597390532493591,-0.82860267162323,-0.3402102589607239,-0.37815767526626587,-0.07752525806427002,0.6343893967922833,0.19828912072001534,0.2153603786332057,0.7154380017467661
1719102695215170000,14.015170166015626,-1.9451416730880737,-0.3406834304332733,1.9933781623840332,-0.02490696869790554,-0.5423065423965454,-0.8398114442825317,-0.23881065845489502,-0.2441009283065796,0.08862125873565674,0.6300977212356885,0.19551810283237822,0.20461411343530206,0.7231062955705704
1719102695225225200,14.02522509765625,-1.8263334035873413,0.2427656352519989,1.814300298690796,-0.035751696676015854,-0.5259042978286743,-0.8497920036315918,0.058426275849342346,-0.11163842678070068,0.3677668571472168,0.6250467471194281,0.19183003655626593,0.19571721907562317,0.7308983597393771
1719102695235279400,14.035279296875,-1.7418150901794434,0.5546872615814209,2.027420997619629,-0.04151134192943573,-0.5097657442092896,-0.8593111634254456,-0.17928330600261688,-0.3095090985298157,0.40903955698013306,0.6191884032743646,0.1862635242436587,0.18881289867493353,0.7390949403646795
1719102695245334300,14.045334228515625,-1.564305067062378,0.8052334785461426,1.9452178478240967,-0.04554492235183716,-0.49441835284233093,-0.8680300116539001,-0.20295968651771545,-0.24938657879829407,0.3573946952819824,0.6127769299000619,0.18040704731322596,0.18286136030113317,0.747341560801586
1719102695255389200,14.05538916015625,-1.2156989574432373,1.176618218421936,1.7126213312149048,-0.04533660411834717,-0.4812246263027191,-0.8754241466522217,-0.08492766320705414,-0.035331130027770996,0.2531554698944092,0.6058678743053159,0.17372392243390145,0.17918684743315666,0.7554046308053511
1719102695265444400,14.0654443359375,-0.4422212541103363,0.6214463710784912,1.3556967973709106,-0.044196002185344696,-0.4735524654388428,-0.8796560168266296,0.007239244878292084,0.16837671399116516,0.14473176002502441,0.6002637703620577,0.16912717885127374,0.17767379522978974,0.7612563761142809
1719102695275498200,14.075498291015625,-0.41454699635505676,0.6093435883522034,1.5655741691589355,-0.045172832906246185,-0.4702579379081726,-0.8813721537590027,0.25582045316696167,0.139020174741745,0.18743300437927246,0.5941013408781959,0.1669058182735732,0.17735942443208852,0.7666352763925576
1719102695285553200,14.08555322265625,0.05602370575070381,1.0775566101074219,1.0669161081314087,-0.0458201989531517,-0.4670247435569763,-0.8830562829971313,0.3973979949951172,0.19300740957260132,0.15183985233306885,0.588336769667082,0.16469148248623988,0.1770552877927483,0.7716138858890216
1719102695295608300,14.0956083984375,0.3693709671497345,1.0251381397247314,1.050796627998352,-0.04257446900010109,-0.46919316053390503,-0.8820686936378479,0.24174746870994568,0.27978581190109253,0.2119942307472229,0.5831836789691389,0.16292149706114883,0.18006177243084331,0.7751974060812348
1719102695305662200,14.105662109375,0.617330014705658,0.47317591309547424,0.682738721370697,-0.040888331830501556,-0.4728661775588989,-0.880185067653656,0.15394073724746704,0.3111687898635864,0.21647346019744873,0.5779913301829791,0.16229413266536544,0.18321597804047124,0.7784718494318301
1719102695315717000,14.115717041015625,1.7147514820098877,1.5336860418319702,0.5768882036209106,-0.03597727045416832,-0.4831627905368805,-0.8747910261154175,0.2201203554868698,0.446984201669693,0.2910507917404175,0.5737580514956621,0.16283207603798205,0.18997418743218994,0.7798700224898035
1719102695325772300,14.125772216796875,2.755650281906128,1.4810822010040283,0.1285315304994583,-0.024228490889072418,-0.5026987195014954,-0.8641220927238464,0.12310546636581421,0.42866307497024536,0.16060036420822144,0.5690568510014714,0.16359433564244605,0.20291833274213286,0.7798944399641173
1719102695335827500,14.135827392578125,3.050110101699829,1.5143150091171265,-0.27581140398979187,-0.011587376706302166,-0.5273270606994629,-0.8495833873748779,0.06993700563907623,0.5733018517494202,0.02422022819519043,0.5656559488773002,0.16614403849748383,0.21818450244726698,0.7777050051785008
1719102695345881300,14.14588134765625,2.9885787963867188,1.2775232791900635,-0.1261962354183197,0.001234531868249178,-0.5539751052856445,-0.8325322866439819,0.0161605067551136,0.3700609803199768,0.058118224143981934,0.5622917631489617,0.16945914748911006,0.23455801122823555,0.774657335961852
1719102695355936300,14.155936279296874,1.9343526363372803,1.774140477180481,0.7245590686798096,0.013661460019648075,-0.5746776461601257,-0.8182657957077026,0.1690930724143982,-0.03320193290710449,0.08691203594207764,0.557255941432777,0.1703121706891128,0.24871843023259527,0.7736915834897948
1719102695365991400,14.165991455078125,0.666760265827179,1.4947093725204468,0.45480382442474365,0.02371588908135891,-0.5859941840171814,-0.809968113899231,0.3450585603713989,-0.32297182083129883,0.22679245471954346,0.5511738546541661,0.16828817628376241,0.258253828832191,0.7753653093602465
1719102695376045300,14.17604541015625,-1.34164559841156,1.2406206130981445,0.36944764852523804,0.03193650022149086,-0.5832623839378357,-0.8116557002067566,0.35510268807411194,-0.49232959747314453,0.29159045219421387,0.5486574413979323,0.16293083630214772,0.2600493882805511,0.7776906152926566
1719102695386100200,14.186100341796875,-2.6576387882232666,1.141413927078247,0.5099878907203674,0.039874132722616196,-0.5664576888084412,-0.8231255412101746,0.3643922507762909,-0.46369361877441406,0.38799065351486206,0.5469171250488642,0.15281472317059955,0.25511739238141645,0.7825882358087975
1719102695396155400,14.1961552734375,-3.0788450241088867,1.211731195449829,0.5843523740768433,0.046635501086711884,-0.5421960353851318,-0.8389568328857422,0.4281722605228424,-0.2047826647758484,0.39590269327163696,0.5454385876545222,0.14081645764581996,0.2463580838465923,0.7886539504379309
1719102695406210300,14.206210205078126,-3.0686423778533936,1.0347644090652466,0.7383029460906982,0.05267489701509476,-0.5165392756462097,-0.8546417951583862,0.3262161314487457,-0.025178253650665283,0.24113166332244873,0.5434001827303855,0.1287637216401667,0.2368523162210874,0.7950076517260476
1719102695416264200,14.21626416015625,-3.1981611251831055,1.0236656665802002,0.6109210252761841,0.05801023542881012,-0.4896393120288849,-0.8699932098388672,0.2662237882614136,0.14379888772964478,0.11953544616699219,0.5412803650884461,0.11687265342997731,0.22659255997259545,0.8012566013609612
1719102695426319400,14.2263193359375,-3.0638208389282227,1.0321409702301025,0.39704787731170654,0.06512317061424255,-0.4620949327945709,-0.8844361305236816,0.23063796758651733,0.3284279704093933,0.09705209732055664,0.5401135598807478,0.10457226677926355,0.21644071853234667,0.8065329617164533
1719102695436374300,14.236374267578125,-2.5512919425964355,1.2475565671920776,0.3119708001613617,0.07390791922807693,-0.43692705035209656,-0.8964554667472839,0.07669635117053986,0.45139238238334656,0.07566994428634644,0.538766877584126,0.09251560694354995,0.2078777123174035,0.8111460174806105
1719102695446429200,14.24642919921875,-1.941096544265747,1.335837721824646,0.33333081007003784,0.08437246829271317,-0.4170335531234741,-0.9049664735794067,-0.0024327412247657776,0.4800828695297241,0.13273441791534424,0.5370628113111137,0.08148117832020345,0.20218207843894143,0.8148905446057
1719102695456483300,14.2564833984375,-1.8122227191925049,1.2967585325241089,0.4202020466327667,0.09479622542858124,-0.4005979299545288,-0.9113368988037109,-0.034371405839920044,0.3284849226474762,0.1503811478614807,0.5349693194440425,0.07154358296209333,0.198022880510117,0.8182152792272119
1719102695466538200,14.266538330078125,-1.8655585050582886,1.3571851253509521,0.6239962577819824,0.10509403049945831,-0.38451072573661804,-0.9171187281608582,0.15714353322982788,0.25743553042411804,0.29091328382492065,0.5319595411856379,0.06163605355749735,0.19401454216905095,0.8219357018693827
1719102695476593200,14.27659326171875,-2.036764621734619,1.2575790882110596,0.3664150536060333,0.11493495851755142,-0.3669418394565582,-0.9231162667274475,0.3363589942455292,0.2708114683628082,0.3860984444618225,0.5293251608023031,0.051665180147403504,0.18913641647946447,0.8254530984797374
1719102695486647300,14.286647216796876,-1.967380404472351,1.4843428134918213,0.3298129737377167,0.126678004860878,-0.3483467102050781,-0.9287664890289307,0.3580021858215332,0.2598457634449005,0.5002539753913879,0.5268477145385966,0.0407214618330827,0.18427833718502054,0.8287428342825611
1719102695496702200,14.2967021484375,-1.389064908027649,1.78788423538208,0.10833278298377991,0.14152228832244873,-0.3331364393234253,-0.9321971535682678,0.19069208204746246,0.4180210828781128,0.5003581643104553,0.5247701310110637,0.029604603319459778,0.1817277773978753,0.8310925792503485
1719102695506757400,14.30675732421875,-0.9851651191711426,1.7840399742126465,-0.27983418107032776,0.15933096408843994,-0.3219761848449707,-0.9332443475723267,0.11869941651821136,0.6930851936340332,0.20770418643951416,0.5236975595522925,0.018642996401282457,0.18174233112392954,0.8320835100290657
1719102695516812300,14.316812255859375,-1.1908376216888428,1.7824934720993042,-0.19926691055297852,0.17612925171852112,-0.31233033537864685,-0.9335032105445862,0.24838554859161377,0.8043195009231567,0.13771158456802368,0.5231023765243069,0.008661425151860885,0.1821356019854561,0.8325354844151033
1719102695526866200,14.3268662109375,-1.499732494354248,1.7793877124786377,-0.38282448053359985,0.19321207702159882,-0.29888904094696045,-0.9345236420631409,0.35261011123657227,0.635696291923523,0.30419832468032837,0.522757730388263,-0.0024348872967944434,0.18092058240569622,0.8330582168086422
1719102695536921300,14.33692138671875,-1.8243337869644165,1.7974621057510376,-0.19776728749275208,0.21090379357337952,-0.2822359800338745,-0.9358752369880676,0.23248611390590668,0.228387713432312,0.4329150319099426,0.5222945680008746,-0.014686673441849983,0.17845642285761143,0.8337540324065031
1719102695546976300,14.346976318359374,-2.1953539848327637,1.8451690673828125,-0.327983558177948,0.2285560965538025,-0.26282039284706116,-0.9373833537101746,0.2413383275270462,0.07414546608924866,0.45639580488204956,0.5215408782960735,-0.02771732288024926,0.17475719026007835,0.8346775971433502
1719102695557030100,14.357030029296874,-2.734572172164917,2.05254864692688,-0.40809065103530884,0.24816447496414185,-0.23835891485214233,-0.9389352798461914,0.37057942152023315,0.22155898809432983,0.5591287612915039,0.5210162075849433,-0.042881814014797626,0.1693916244635898,0.8354697664166333
1719102695567085300,14.367085205078125,-3.2713122367858887,2.1757657527923584,-0.7526901364326477,0.2693665623664856,-0.20770660042762756,-0.9403720498085022,0.22427049279212952,0.39227694272994995,0.7058597803115845,0.5210720855201615,-0.06025849691012805,0.16181125405519917,0.8358647548894332
1719102695577140200,14.37714013671875,-2.752514123916626,2.2607944011688232,-0.481341153383255,0.2916179597377777,-0.17734263837337494,-0.9399513602256775,0.19385570287704468,0.30524179339408875,0.7865089774131775,0.520899360597893,-0.07802783718929794,0.15471255967360095,0.8358465998515244
1719102695587195100,14.387195068359375,-1.527695655822754,2.6923913955688477,-0.4628131091594696,0.3159007132053375,-0.15479736030101776,-0.9360793232917786,0.306612104177475,0.29884034395217896,0.6922439336776733,0.5201586700613958,-0.0946785103624356,0.15164536364929312,0.835149377991256
1719102695597249300,14.397249267578125,-0.5868934392929077,2.6095290184020996,-0.25833988189697266,0.34171995520591736,-0.14351855218410492,-0.9287787079811096,0.48828187584877014,0.3877964913845062,0.6331244111061096,0.518944776189705,-0.10909487349377041,0.15397712440660866,0.8337179230009434
1719102695607304400,14.407304443359376,0.007490524090826511,3.199035406112671,-0.8775951266288757,0.37002286314964294,-0.13941612839698792,-0.918502151966095,0.48425573110580444,0.545986533164978,0.39343196153640747,0.518887378664322,-0.12250408291871423,0.16044210659395425,0.8306665261148775
1719102695617359000,14.417359130859374,0.2689775228500366,3.5286667346954346,-0.7451736927032471,0.4023019075393677,-0.1363428384065628,-0.9052976369857788,0.20917880535125732,0.2700555920600891,0.2068113088607788,0.5199566715028154,-0.13720342109924114,0.16889762172390943,0.8260107729243551
1719102695627413200,14.427413330078124,0.5540410876274109,3.285470962524414,-0.5338347554206848,0.4338184595108032,-0.13907918334007263,-0.8902013897895813,0.13394582271575928,-0.07213297486305237,0.2165716290473938,0.5199850994078106,-0.15026133691858415,0.17977998030754525,0.8214109808059579
1719102695637468400,14.437468505859375,-0.4067288935184479,3.2953312397003174,-0.7171723246574402,0.4641585946083069,-0.13830792903900146,-0.8748872876167297,0.5761246085166931,-0.04882587492465973,0.10227376222610474,0.5193639458026731,-0.1639814209075495,0.18885564136379962,0.8171320811272005
1719102695647523000,14.447523193359375,-1.0188581943511963,3.098891258239746,-0.8381569981575012,0.4937479794025421,-0.1281595230102539,-0.8601093292236328,0.7396199703216553,0.0951547771692276,0.2666340470314026,0.518766977169052,-0.18005500534690072,0.1937150685523671,0.8129793638962435
1719102695657578200,14.457578125,-1.760304570198059,3.5422492027282715,-0.7193488478660583,0.5214530825614929,-0.11236128956079483,-0.8458496332168579,0.6220405697822571,-0.025593429803848267,0.3271576166152954,0.5177026255939869,-0.1971036197306749,0.19551301035680918,0.8092643276709418
1719102695667632400,14.46763232421875,-2.292623281478882,3.3049447536468506,-1.2827976942062378,0.5518133640289307,-0.08857375383377075,-0.829250693321228,0.5792443752288818,-0.15373583137989044,0.3256038427352905,0.5159927093588706,-0.21791813620671513,0.19464410058823284,0.8052185726092143
1719102695677687300,14.477687255859376,-2.6053013801574707,3.3005716800689697,-1.206946849822998,0.580718994140625,-0.06159607321023941,-0.811770498752594,0.4798431396484375,0.03057493269443512,0.3922300934791565,0.5145879540248706,-0.2391428993621155,0.19215987967851617,0.8006775023851403
1719102695687742200,14.4877421875,-2.960294723510742,3.566727638244629,-1.0750590562820435,0.609006404876709,-0.032898109406232834,-0.7924827337265015,0.6606773734092712,0.43550124764442444,0.15631335973739624,0.5126477367249612,-0.26099788890596803,0.18878224612928954,0.7958853885082933
1719102695697797400,14.49779736328125,-3.610750913619995,3.7244575023651123,-1.337362289428711,0.6378607153892517,0.00047109744627960026,-0.7701515555381775,0.5769829750061035,0.3107318878173828,-0.006658077239990234,0.5095863090321692,-0.28510193284673374,0.1834151296631488,0.790820763778838
1719102695707851300,14.507851318359375,-4.0274271965026855,3.80268931388855,-1.237699031829834,0.6657284498214722,0.03846205770969391,-0.7452021837234497,0.5364505052566528,0.043462350964546204,-0.03394210338592529,0.5056696702779234,-0.31075584339278167,0.17558394821862436,0.7854292925220497
1719102695717906200,14.51790625,-4.32655668258667,3.786829710006714,-1.4032773971557617,0.6924417614936829,0.07868435978889465,-0.717170238494873,0.6793385744094849,0.21115630865097046,-0.03754466772079468,0.5006005628869632,-0.3373628319628426,0.16613607681517747,0.779733381740104
1719102695727961300,14.52796142578125,-3.009099006652832,3.666555643081665,-1.5916498899459839,0.7176075577735901,0.11524874716997147,-0.6868457794189453,0.6756724119186401,0.36142054200172424,-0.021696090698242188,0.49683172674797443,-0.36252854286684427,0.15858807256139448,0.7723866445967121
1719102695738015200,14.53801513671875,-2.2458293437957764,3.9929378032684326,-1.6563506126403809,0.7403052449226379,0.14429785311222076,-0.6566020846366882,0.7167564630508423,0.5473219752311707,-0.12942391633987427,0.49513902779663627,-0.38438347913872445,0.15475237496908653,0.763635027260697
1719102695748070100,14.548070068359374,-1.9115550518035889,4.035855293273926,-2.0832457542419434,0.7631842494010925,0.17182199656963348,-0.6229180693626404,0.77540522813797,1.070044994354248,-0.22989565134048462,0.49539567013910224,-0.4062481619212549,0.15330818250178135,0.7523576559495135
1719102695758125300,14.558125244140625,-2.6186182498931885,3.927713632583618,-2.340301752090454,0.7834852337837219,0.20204757153987885,-0.5876458287239075,0.5790940523147583,1.1534059047698975,-0.3300178050994873,0.49620566625446016,-0.42833089821294107,0.15069750142974256,0.7400018818539102
1719102695768180500,14.568180419921875,-3.52659010887146,4.065806865692139,-1.944528341293335,0.8012472987174988,0.237692192196846,-0.5490949153900146,0.7799904942512512,0.6071411967277527,-0.30063652992248535,0.4941842722903601,-0.452497635887301,0.14386950558662673,0.7282371553213076
1719102695778234400,14.578234375,-3.7347300052642822,3.863264560699463,-2.0714893341064453,0.8171395659446716,0.2731391489505768,-0.5076198577880859,0.8487691879272461,0.24446943402290344,-0.23449134826660156,0.4901113790489641,-0.4772286691118333,0.13580456583833356,0.7166594326135021
1719102695788289300,14.588289306640625,-3.155682325363159,4.161963939666748,-2.3617873191833496,0.8307217359542847,0.30766382813453674,-0.46394434571266174,0.8391391038894653,0.46156221628189087,-0.43713295459747314,0.48700733801525903,-0.5015072228550745,0.12852366713999663,0.7034173708124343
1719102695798344400,14.598344482421876,-2.5883710384368896,3.9203062057495117,-2.461327075958252,0.8404332995414734,0.3418410122394562,-0.4204956889152527,0.7972466945648193,0.45663610100746155,-0.5472624897956848,0.4854806079337204,-0.5244051999100213,0.12145507776371578,0.6888805977190671
1719102695808399000,14.608399169921874,-2.075528621673584,3.7348251342773438,-2.087995767593384,0.8480170965194702,0.37031564116477966,-0.37912189960479736,0.7661339640617371,0.14698782563209534,-0.2928599715232849,0.48482421383959673,-0.5447280826423867,0.11709127689359221,0.6741709911564512
1719102695818453200,14.618453369140624,-1.8672133684158325,3.5292513370513916,-2.104637384414673,0.8526651263237,0.3959277868270874,-0.34088611602783203,0.9490621089935303,0.11399036645889282,-0.21178728342056274,0.4841587715091987,-0.5628597042072284,0.1128977410977575,0.6603282012565166
1719102695828508400,14.62850830078125,-1.740095615386963,4.195461750030518,-2.32283091545105,0.8561322689056396,0.42114150524139404,-0.29946160316467285,0.9741136431694031,0.41603195667266846,0.02149224281311035,0.4840360276818371,-0.5815212824719496,0.11000995694388084,0.6445462531941835
1719102695838563300,14.638563232421875,-1.9030210971832275,3.673079013824463,-3.1352899074554443,0.8559929728507996,0.4487004280090332,-0.2567955255508423,1.0743963718414307,0.5577844977378845,-0.1610206663608551,0.48499619847656816,-0.6002233257422248,0.1064621891215901,0.6270378070102008
1719102695848617200,14.6486171875,-2.370483875274658,3.7745473384857178,-3.2596352100372314,0.8496594429016113,0.4819565713405609,-0.2140018343925476,1.2504076957702637,0.5429610013961792,-0.2140987515449524,0.48623421273509265,-0.6190883357192396,0.09863424216282203,0.6087505594953003
1719102695858672000,14.658672119140626,-2.6055455207824707,3.4153144359588623,-3.3546528816223145,0.8403291702270508,0.5146805644035339,-0.17014896869659424,1.3722257614135742,-0.10157942771911621,0.02769291400909424,0.48596058691662714,-0.6379444684434726,0.08917607415232658,0.5906917533860739
1719102695868727300,14.668727294921876,-0.9344056248664856,3.6280956268310547,-3.2029366493225098,0.8275764584541321,0.5456900596618652,-0.13167881965637207,1.449843406677246,-0.6404320001602173,0.29406285285949707,0.4890484379183294,-0.6537821954462137,0.08203312471195946,0.5715512853937688
1719102695878782200,14.6787822265625,-0.2184043675661087,3.3313934803009033,-2.96873140335083,0.8147484660148621,0.5712130665779114,-0.09950186312198639,1.2881872653961182,-0.42364537715911865,0.1469414234161377,0.49406024801123144,-0.6663530248014192,0.07888418465627713,0.5528611532275814
1719102695888836000,14.688836181640625,-0.3712064027786255,3.3967769145965576,-3.184431314468384,0.7997026443481445,0.5961877703666687,-0.07096468657255173,1.4892226457595825,0.2829169034957886,0.16436368227005005,0.500423517888846,-0.6772535488242558,0.07645449035803141,0.5339088823212437
1719102695898891300,14.698891357421875,-0.966812014579773,3.539234161376953,-3.5979037284851074,0.7806307673454285,0.6237503886222839,-0.0393826961517334,1.6072628498077393,0.1770002841949463,-0.04476958513259888,0.505688542339128,-0.6893479658079724,0.07147051716140958,0.5137805181907219
1719102695908946200,14.7089462890625,-1.3647595643997192,3.155355453491211,-3.2417938709259033,0.7592462301254272,0.6507824659347534,-0.005204260814934969,1.6283421516418457,-0.06530284881591797,-0.045592308044433594,0.509192800653235,-0.7022399121862701,0.06524550106300295,0.4932795162529857
1719102695919000000,14.719,-0.9392332434654236,3.1004745960235596,-3.4217352867126465,0.7371683120727539,0.675136148929596,0.02782098762691021,1.8725881576538086,-0.15163767337799072,-0.07332277297973633,0.5115822203630036,-0.7144464694243049,0.058963851348561774,0.47368041920349174
1719102695929055200,14.72905517578125,-1.2833656072616577,1.6389762163162231,-2.9174118041992188,0.7152405977249146,0.6968814134597778,0.052794843912124634,1.9598387479782104,-0.18281280994415283,-0.0827937051653862,0.5138830583157088,-0.7237190658304605,0.05126534413079923,0.45774104026159423
1719102695939110400,14.7391103515625,-2.101921319961548,1.8561341762542725,-2.714655876159668,0.6937840580940247,0.7161343097686768,0.07625900954008102,1.8289363384246826,-0.16715359687805176,0.044849999248981476,0.5138412301613098,-0.7324208427786041,0.04110004600669397,0.4447895395398644
1719102695949165300,14.749165283203125,-2.003793239593506,1.0107663869857788,-2.6197729110717773,0.6732541918754578,0.7325493693351746,0.10050003975629807,1.49009108543396,-0.26495903730392456,-0.010137557983398438,0.5120153494609813,-0.7411609947050537,0.030502459083321862,0.43311692075504893
1719102695959219200,14.75921923828125,-1.8363440036773682,-0.18614205718040466,-1.8576394319534302,0.6558392643928528,0.7455734014511108,0.11830135434865952,1.118483304977417,-0.40525662899017334,-0.021087646484375,0.5093808400434744,-0.7475284039505637,0.018760695206801768,0.42588787428655217
1719102695969274400,14.7692744140625,-1.7894890308380127,0.4152417778968811,-0.8125879764556885,0.6466249227523804,0.7511940002441406,0.13260400295257568,0.9421964883804321,-0.3799629807472229,0.16471350193023682,0.5048784313936128,-0.7524615386094584,0.010180145626259726,0.42284251182310206
1719102695979329300,14.779329345703125,-0.8081419467926025,0.6710349321365356,-0.6788341999053955,0.6395206451416016,0.754655659198761,0.14665651321411133,0.8807887434959412,-0.31595027446746826,-0.11992311477661133,0.5016400499935638,-0.7571609514111628,0.005962312980806417,0.41836467079202455
1719102695989384200,14.78938427734375,-0.7557864189147949,0.7471864223480225,-0.06042933464050293,0.6348342895507812,0.756783664226532,0.15576854348182678,0.27127838134765625,-0.5353024005889893,-0.31804585456848145,0.5005210170451923,-0.7601702646051719,0.005043822612137967,0.41423956531915446
1719102695999438300,14.799438232421876,-0.4405871629714966,1.3549871444702148,1.1979161500930786,0.638019323348999,0.7512866258621216,0.16881868243217468,0.2056390643119812,-0.29492682218551636,-0.06289219856262207,0.49579233244833537,-0.7644234176905174,0.008134959360497069,0.4120444484768034
1719102696009493200,14.8094931640625,0.31147080659866333,0.5461167097091675,1.1308618783950806,0.64516282081604,0.7444241642951965,0.17203962802886963,0.6458985805511475,-0.2870420217514038,-0.013027787208557129,0.4945903700313969,-0.7653647669696783,0.015381351395172278,0.41153441064871876
1719102696019548200,14.819548095703125,1.447783350944519,0.6576011776924133,2.07761549949646,0.6567453145980835,0.7345374226570129,0.17070621252059937,0.382576584815979,-0.5002996921539307,-0.27316904067993164,0.4938224333437736,-0.7646741375672305,0.02503137012968964,0.4132630997057121
1719102696029602300,14.829602294921875,1.5754289627075195,0.37941375374794006,2.5387556552886963,0.6717929840087891,0.722558319568634,0.1631053388118744,0.2061976194381714,-0.3292326331138611,-0.05266226828098297,0.4952794298303204,-0.761633010485617,0.03831222932181899,0.4161075409535032
1719102696039657500,14.839657470703125,1.700545310974121,0.5577248930931091,3.5629324913024902,0.6929491758346558,0.7044399976730347,0.1535767912864685,-0.17138850688934326,-0.8180112242698669,-0.14242267608642578,0.49562366740339886,-0.7574678240577982,0.05505356241452636,0.4213891603719703
1719102696049712000,14.849712158203126,1.4053668975830078,0.7247663140296936,3.997490406036377,0.7184422016143799,0.6792723536491394,0.1497659534215927,-0.3005955219268799,-0.7804992198944092,-0.2206583023071289,0.4921041520508595,-0.7545804623926193,0.0741033094940191,0.4277271604174597
1719102696059767300,14.859767333984376,0.6957487463951111,1.0774344205856323,4.359854698181152,0.744743824005127,0.650997519493103,0.1468288153409958,-0.20180565118789673,-0.3416714072227478,-0.36234402656555176,0.48823540408112753,-0.7512386200427535,0.09515748526931841,0.4338337392229773
1719102696069821400,14.869821533203124,-0.7823783755302429,0.707618772983551,4.990478515625,0.7738330364227295,0.6140131950378418,0.15546752512454987,0.005616366863250732,-0.3895869851112366,-0.46119260787963867,0.476349398677045,-0.751319048055758,0.11512362119617192,0.4419925718420277
1719102696079876000,14.8798759765625,-2.253737688064575,0.7803640961647034,5.007046699523926,0.8020399212837219,0.5723161101341248,0.1708398163318634,0.3280717730522156,-0.05397510528564453,-0.15257513523101807,0.4589983645543776,-0.7536012125334381,0.13230692192505267,0.45155353012948063
1719102696089931300,14.88993115234375,-2.975594997406006,0.9034612774848938,4.949761390686035,0.8278940916061401,0.5269266366958618,0.19219674170017242,0.5032215714454651,0.09413653612136841,-0.21801459789276123,0.4373521401483359,-0.7578637859673423,0.14744779553907852,0.46111248170326297
1719102696099985400,14.8999853515625,-3.365053653717041,0.818873405456543,5.121204376220703,0.8517000675201416,0.4773680865764618,0.2161625325679779,0.4284968972206116,0.23367610573768616,-0.34842580556869507,0.4122280728604674,-0.7629989062269062,0.1609780485907318,0.4711544778293102
1719102696110040000,14.9100400390625,-4.194899082183838,1.4364924430847168,4.638927459716797,0.871205747127533,0.426740437746048,0.2426786571741104,0.37816858291625977,0.44333088397979736,-0.39598381519317627,0.3855045438672986,-0.7689848514117361,0.1732097694366102,0.4796319571926213
1719102696120095200,14.92009521484375,-5.451188087463379,1.2268084287643433,4.4767913818359375,0.885870099067688,0.3738795220851898,0.27467793226242065,0.3905884623527527,0.7461918592453003,-0.3470504581928253,0.35415408385579616,-0.7774348237485927,0.18147742326878422,0.4870685959385424
1719102696130150400,14.930150390625,-5.245771884918213,1.2320692539215088,5.0072808265686035,0.8989279866218567,0.31493377685546875,0.30454084277153015,0.36652910709381104,0.9869765639305115,-0.14813828468322754,0.31978524789535234,-0.7852102833235164,0.18898475648517973,0.49544621403647376
1719102696140204300,14.940204345703124,-5.200538635253906,1.0461292266845703,4.504464149475098,0.9088757038116455,0.25573036074638367,0.3294643759727478,0.3688341975212097,1.0855324268341064,-0.3454709053039551,0.2866986698008595,-0.7912162844868067,0.19674596233903335,0.503062268804011
1719102696150259200,14.95025927734375,-6.215732574462891,0.944098711013794,4.840767860412598,0.915772020816803,0.19372092187404633,0.3519000709056854,0.34437495470046997,1.03484046459198,-0.2975941002368927,0.2511255651352439,-0.7969245700355321,0.2021416952203297,0.5108677549635212
1719102696160314400,14.960314453125,-5.924648761749268,0.9992924332618713,4.897148132324219,0.9203198552131653,0.12591713666915894,0.37034571170806885,0.3690476417541504,0.9193251132965088,0.044662803411483765,0.21270696198190123,-0.8014337988557655,0.20706694422239363,0.5192136333023378
1719102696170369000,14.970369140625,-6.370465278625488,0.9510716795921326,4.6396589279174805,0.9206419587135315,0.05845010280609131,0.38600724935531616,0.5498015880584717,0.8346315622329712,-0.1839199662208557,0.17427804958107332,-0.8052186698354744,0.21124989896373797,0.5259500168446823
1719102696180423200,14.980423095703125,-6.068421363830566,0.6617146730422974,5.124139785766602,0.9188727140426636,-0.011579683050513268,0.3943841755390167,0.5704004168510437,0.952863872051239,-0.05440312623977661,0.13487025080056506,-0.8068697816618571,0.21483306182874906,0.5334959628690265
1719102696190478300,14.990478271484376,-5.309265613555908,0.5812110304832458,4.874844074249268,0.9142197370529175,-0.08029183000326157,0.3971843421459198,0.7985792756080627,1.0614014863967896,0.2549762725830078,0.09801474522605454,-0.8061817212883281,0.22059737165127896,0.5401860019526287
1719102696200533200,15.000533203125,-6.206352710723877,0.6540900468826294,4.793692588806152,0.9059849977493286,-0.14709097146987915,0.3969326317310333,0.8490962386131287,0.9477653503417969,0.1484927535057068,0.06097069705460019,-0.804969438363156,0.22470094566273652,0.545725479098142
1719102696210587100,15.010587158203125,-6.613826751708984,0.2702574133872986,4.80146598815918,0.8949661254882812,-0.216915562748909,0.3898501992225647,0.7235031127929688,0.9123958945274353,0.3976863622665405,0.020757158762039162,-0.8022131061480654,0.22666986624965343,0.5519456432115949
1719102696220642300,15.020642333984375,-6.4420166015625,0.1240118071436882,4.42132568359375,0.8831310868263245,-0.28202754259109497,0.37488630414009094,0.7508105039596558,0.8818811178207397,0.6271735429763794,-0.01800217937942428,-0.7975370332469599,0.2266667759967338,0.5587778468745455
1719102696230697200,15.030697265625,-6.824125289916992,-0.1997995376586914,4.38586950302124,0.8696276545524597,-0.3444633483886719,0.3536844253540039,0.9196178913116455,0.7604484558105469,0.511107325553894,-0.056460178936884015,-0.7911942140678777,0.22550815757127873,0.565658929599232
1719102696240752000,15.040752197265626,-6.978668689727783,-0.29948487877845764,4.556049346923828,0.8537154197692871,-0.4064621925354004,0.32551267743110657,1.142866611480713,1.0593857765197754,0.7085143327713013,-0.09624551339423,-0.7828751595138201,0.2232998391548272,0.5726958037281338
1719102696250806300,15.05080615234375,-6.31904411315918,-0.0487317331135273,4.283186435699463,0.8346490263938904,-0.4656965136528015,0.2940879762172699,1.0664281845092773,1.3032209873199463,0.8243507146835327,-0.13524837611390578,-0.773227156439572,0.2217289917992367,0.5785014267427994
1719102696260861200,15.060861083984374,-5.358582019805908,-0.4219202399253845,4.137939453125,0.814728856086731,-0.5166077613830566,0.26331207156181335,0.9446247220039368,1.1120362281799316,0.5987789630889893,-0.16980605933466725,-0.7634780843438775,0.22081045202233526,0.5826747309931426
1719102696270916000,15.070916015625,-4.605856895446777,-0.3335144817829132,4.1099324226379395,0.7930939793586731,-0.5625398755073547,0.2335609346628189,1.0198484659194946,1.0559937953948975,0.5551657676696777,-0.20046088366160314,-0.7531922635116014,0.22244523401852676,0.5856918287578006
1719102696280970200,15.08097021484375,-3.952585458755493,-0.0341663733124733,4.628641128540039,0.7680565714836121,-0.6059486269950867,0.20716014504432678,1.0871679782867432,1.445960283279419,0.6101768016815186,-0.22905344451371637,-0.7432038103579712,0.22633640588080814,0.5864762856632304
1719102696291025200,15.091025146484375,-3.532419443130493,0.04313800111413002,3.7284042835235596,0.7411841750144958,-0.6456246972084045,0.18388782441616058,0.9641380310058594,1.4304604530334473,0.28104734420776367,-0.2557016394218656,-0.7339231403821418,0.2308695239040557,0.5853825740371388
1719102696301080300,15.101080322265625,-3.347844123840332,0.21261198818683624,3.5779502391815186,0.7169743180274963,-0.6779929995536804,0.16209010779857635,0.6049097776412964,1.3179161548614502,0.09100735187530518,-0.2788343724612189,-0.7254396684597957,0.23405627822557987,0.5841286587681702
1719102696311135200,15.11113525390625,-3.188960552215576,0.43059810996055603,3.5406649112701416,0.6911296248435974,-0.7087234258651733,0.14160054922103882,0.7016467452049255,1.301619052886963,0.016022667288780212,-0.3016755173893398,-0.71729519351501,0.23725067309267817,0.5815423559991384
1719102696321189000,15.121189208984376,-3.3133296966552734,0.5083480477333069,2.813359498977661,0.6676305532455444,-0.7345609664916992,0.12120041996240616,0.8039727807044983,1.3175840377807617,-0.08331286907196045,-0.32316356899302656,-0.7098118638356938,0.238258949232204,0.578761658629332
1719102696331244300,15.131244384765624,-3.460489511489868,0.29327937960624695,3.1069226264953613,0.6448649764060974,-0.7579365372657776,0.09839487075805664,0.5474568605422974,1.0080738067626953,-0.188727006316185,-0.3443804567704696,-0.701749076360161,0.2382134954812403,0.5763720385550141
1719102696341299200,15.14129931640625,-3.5228469371795654,0.5416055917739868,3.310239553451538,0.6191543340682983,-0.7817999124526978,0.07373581826686859,0.5964981913566589,1.0167851448059082,-0.22127306461334229,-0.3665946040146504,-0.692676296844702,0.23888795646987557,0.5733590087882086
1719102696351354400,15.151354248046875,-2.962494134902954,0.23685474693775177,2.0188567638397217,0.5980833768844604,-0.7998053431510925,0.05106350779533386,0.5940093994140625,0.8696143627166748,-0.45099639892578125,-0.3858081005389954,-0.684826337332976,0.23779117207059744,0.5706314728725218
1719102696361408300,15.161408203125,-3.365281820297241,0.11226993054151535,2.0395779609680176,0.5821347236633301,-0.8126593232154846,0.026531333103775978,0.49058860540390015,0.5573645234107971,-0.5922356843948364,-0.40244737137060166,-0.676758584943888,0.23508186748545556,0.5698863009888121
1719102696371463400,15.17146337890625,-2.6427950859069824,-0.32114702463150024,2.531076431274414,0.5636973977088928,-0.8259807229042053,0.0009571317350491881,0.7113726735115051,0.8410870432853699,-0.4615284204483032,-0.419100265504484,-0.6676087755650745,0.2340450568747998,0.5691013306382238
1719102696381518300,15.181518310546876,-2.0738463401794434,-0.0865856409072876,2.254469871520996,0.5433991551399231,-0.8392350077629089,-0.020049409940838814,0.5923429727554321,1.1428697109222412,-0.5617530345916748,-0.4335273558202349,-0.6590083885629896,0.23597296187447067,0.5675198220106973
1719102696391572200,15.191572265625,-2.499213933944702,-0.26719218492507935,2.6263513565063477,0.5230675935745239,-0.8513569831848145,-0.03989051282405853,0.3740423321723938,1.1242759227752686,-0.7670858502388,-0.44752975182387633,-0.650783215486886,0.23777289668254456,0.5653867896276814
1719102696401627400,15.20162744140625,-3.640817403793335,-0.7252779603004456,2.7498586177825928,0.498544305562973,-0.8641941547393799,-0.06798391789197922,0.3781035542488098,1.0537694692611694,-0.810067892074585,-0.4645207196250229,-0.6392106020367915,0.23962021766024386,0.5641031514492204
1719102696411682300,15.211682373046875,-3.734614849090576,-0.5428445339202881,1.545235514640808,0.4791668951511383,-0.8715512156486511,-0.10391037911176682,0.604313850402832,0.9580991268157959,-0.7140675783157349,-0.4819720549319319,-0.6259351655991607,0.23717077897639618,0.5653830532840018
1719102696421737200,15.2217373046875,-3.0781710147857666,-1.1795474290847778,1.293676733970642,0.4659411311149597,-0.8742931485176086,-0.13605238497257233,0.4023754894733429,0.8044537305831909,-0.7855785489082336,-0.4950677785554014,-0.6140703868668621,0.2342890641178007,0.5682728557290389
1719102696431791400,15.231791259765625,-2.8394274711608887,-1.7958135604858398,0.620654284954071,0.4546969532966614,-0.8745755553245544,-0.16842812299728394,0.42452964186668396,0.9413633942604065,-0.8036483526229858,-0.5055425447748508,-0.6014921233822835,0.23236428921547383,0.5732718560224863
1719102696441846300,15.24184619140625,-2.1872127056121826,-2.5449562072753906,0.0900130346417427,0.44851839542388916,-0.8711603283882141,-0.19977739453315735,0.6570265889167786,1.2092797756195068,-0.8277647495269775,-0.5111876757355739,-0.5886983770938845,0.2313990539858931,0.5818727554370887
1719102696451901200,15.251901123046874,-2.544339656829834,-3.6550989151000977,0.0676092579960823,0.44102978706359863,-0.8663283586502075,-0.23445259034633636,0.8741557598114014,1.2923842668533325,-1.357496976852417,-0.5146736514731561,-0.5732604301222525,0.23269332372445573,0.5935801487982425
1719102696461956400,15.261956298828125,-1.839874505996704,-4.463916778564453,-0.45875120162963867,0.4319661259651184,-0.8601815104484558,-0.27109625935554504,0.8022257685661316,1.7192665338516235,-1.5843877792358398,-0.515511978624955,-0.5555172643299978,0.23633120959202839,0.6081082590906574
1719102696472010500,15.272010498046875,-1.972800850868225,-5.006855487823486,-1.3771785497665405,0.4267396032810211,-0.8507055640220642,-0.3069094121456146,0.7184934616088867,1.996335506439209,-1.694753885269165,-0.5117299553972309,-0.5374297733758362,0.2402384804300827,0.625769256660274
1719102696482065200,15.282065185546875,-2.7252562046051025,-5.711102485656738,-2.005378007888794,0.4232931435108185,-0.8356775641441345,-0.34995120763778687,0.7112740278244019,2.2732996940612793,-1.5979857444763184,-0.5063812953533836,-0.5163327736330907,0.2417123425076941,0.6469571483430474
1719102696492120300,15.292120361328125,-2.357034206390381,-6.3412394523620605,-3.2209718227386475,0.4221053421497345,-0.8150507807731628,-0.39688682556152344,0.8248122930526733,2.39764666557312,-1.096658706665039,-0.4971424467075995,-0.4930676784930532,0.2417454233567845,0.671783184479133
1719102696502174500,15.302174560546876,-2.070647954940796,-7.159540176391602,-4.125782012939453,0.42317160964012146,-0.7898557186126709,-0.44390735030174255,0.8629764318466187,2.105590581893921,-0.8990644812583923,-0.4815388099638578,-0.46858178776480974,0.24182108632577248,0.7000528958514287
1719102696512229000,15.31222900390625,-0.9844338297843933,-7.392886638641357,-5.165946960449219,0.42547690868377686,-0.7625386118888855,-0.487343966960907,0.9898977279663086,2.0670278072357178,-0.548117458820343,-0.4598007605621237,-0.444433912284319,0.2425005364175043,0.7295581420863144
1719102696522284300,15.3222841796875,0.22614437341690063,-8.025896072387695,-6.400201797485352,0.43007951974868774,-0.7351149320602417,-0.5240586400032043,1.1839035749435425,2.2513656616210938,-0.47507160902023315,-0.4291718034276377,-0.42151874951309903,0.24554556420412374,0.7601583522640586
1719102696532339500,15.33233935546875,1.269993543624878,-8.570577621459961,-7.217221736907959,0.43550905585289,-0.7090845108032227,-0.5545548796653748,1.2773969173431396,2.5116052627563477,-0.2469436526298523,-0.39066408218462795,-0.3996127811609679,0.25106212987211035,0.7903537922455275
1719102696542393000,15.34239306640625,1.3634459972381592,-8.716020584106445,-8.10060977935791,0.4393172562122345,-0.6831581592559814,-0.5833483934402466,1.4140915870666504,2.5191872119903564,-0.012186884880065918,-0.3458336629637814,-0.37667748030698905,0.2577593615095935,0.8198007666262592
1719102696552448300,15.3524482421875,1.50579833984375,-8.91743278503418,-9.68063735961914,0.4460919201374054,-0.6521401405334473,-0.6129561066627502,1.656492829322815,1.9356484413146973,0.10459429025650024,-0.29421024120075606,-0.3536155951967142,0.2616829282320141,0.8484799897363658
1719102696562503400,15.36250341796875,2.284693717956543,-9.301101684570312,-10.681126594543457,0.45365670323371887,-0.6172149777412415,-0.6428384780883789,1.7588828802108765,1.2953612804412842,0.2125558853149414,-0.23481577179797516,-0.32994805855507203,0.26403603827813626,0.8753746945333823
1719102696572557300,15.372557373046876,4.265343189239502,-9.270319938659668,-11.427807807922363,0.4593932628631592,-0.5876193642616272,-0.666079044342041,1.9864532947540283,1.417285442352295,0.451876163482666,-0.1678590370152101,-0.30657488854587345,0.2701338903350388,0.8971414462146718
1719102696582612200,15.3826123046875,6.523505210876465,-9.311921119689941,-11.92483139038086,0.46453943848609924,-0.5695961117744446,-0.6780585050582886,2.205153465270996,1.7651679515838623,0.7140387296676636,-0.09380674329875628,-0.28408190663166827,0.2833164493054831,0.9111693273990267
1719102696592667400,15.39266748046875,9.064250946044922,-9.437145233154297,-11.930615425109863,0.4686538577079773,-0.5663920044898987,-0.6779111623764038,2.420689344406128,1.879700779914856,0.9753202795982361,-0.014316704871995834,-0.26063222317590423,0.30514793238698307,0.9158332153568461
1719102696602722000,15.40272216796875,11.3314847946167,-9.6193208694458,-11.202717781066895,0.4710700213909149,-0.5805639624595642,-0.6641072034835815,2.7187340259552,1.791654109954834,1.294753074645996,0.0671846622776942,-0.23407369846592116,0.33638651936882535,0.9096920919181246
1719102696612776200,15.412776123046875,12.646700859069824,-9.95150089263916,-9.916298866271973,0.4702729880809784,-0.609525203704834,-0.638218104839325,3.058260917663574,1.509824275970459,1.5659525394439697,0.145791325436793,-0.20216899066920754,0.374190642497374,0.8932267150307828
1719102696622831400,15.422831298828125,12.421847343444824,-10.494902610778809,-8.480267524719238,0.46418434381484985,-0.6455754637718201,-0.6064364314079285,3.28078031539917,1.1329870223999023,1.8337619304656982,0.21834795191235595,-0.1634163383246824,0.41240378396132316,0.869219387855345
1719102696632886300,15.43288623046875,10.714306831359863,-10.613726615905762,-7.703761577606201,0.4546593725681305,-0.6776659488677979,-0.5779737830162048,3.312933921813965,0.40850090980529785,2.1789565086364746,0.28405925508305463,-0.12050000644031127,0.4432751436048685,0.841603936748306
1719102696642941200,15.442941162109374,8.937532424926758,-9.961260795593262,-7.423051357269287,0.44805780053138733,-0.6992005705833435,-0.5571020841598511,3.0392162799835205,-0.4281798005104065,2.2821083068847656,0.3440372512553613,-0.07931726037190912,0.4638509629020896,0.812520397568339
1719102696652995300,15.452995361328124,7.633681774139404,-9.151105880737305,-6.7218708992004395,0.44580337405204773,-0.7128440737724304,-0.5413987636566162,2.204556703567505,-0.8599556088447571,2.2754533290863037,0.39774141330290214,-0.042408913655915086,0.4769717930272128,0.7826245097273713
1719102696663050200,15.46305029296875,6.62741231918335,-8.485808372497559,-5.68128776550293,0.44306015968322754,-0.723407506942749,-0.5295085906982422,1.2415711879730225,-0.680248498916626,2.5248851776123047,0.4439481143670559,-0.008278273046865035,0.48495068779697986,0.753435096044725
1719102696673105200,15.473105224609375,5.740250587463379,-7.6966376304626465,-4.797567844390869,0.43868622183799744,-0.7328694462776184,-0.5200545787811279,0.5826760530471802,-0.5045267939567566,2.909764051437378,0.4830536002835309,0.02345095416377315,0.4893084597204448,0.725731682528894
1719102696683159300,15.4831591796875,4.511618614196777,-6.563018321990967,-3.7426459789276123,0.43308475613594055,-0.7409018278121948,-0.513324499130249,0.019811362028121948,-0.7310829758644104,2.906421422958374,0.5150734773544363,0.051567698872102004,0.4905899839882753,0.7009718417102957
1719102696693214200,15.493214111328125,3.210331678390503,-4.899075031280518,-2.711371660232544,0.42770954966545105,-0.746631920337677,-0.5095147490501404,-0.5527706146240234,-0.8682515025138855,2.589470863342285,0.5392058032419262,0.07369156093260515,0.48970621458997526,0.6811860424364582
1719102696703269000,15.50326904296875,2.8867201805114746,-2.811587333679199,-1.6514480113983154,0.42438992857933044,-0.7523813247680664,-0.5038010478019714,-1.1101962327957153,-0.6052693724632263,2.1143813133239746,0.5549379044519549,0.08961126763118367,0.4899686843835076,0.66629153076924
1719102696713324300,15.51332421875,3.8594985008239746,-1.6387385129928589,-0.8056743144989014,0.4229223430156708,-0.7637946009635925,-0.48760080337524414,-1.3788855075836182,-0.11540162563323975,1.3183503150939941,0.5625222045652998,0.10296602365752447,0.49557804245345244,0.6537348512527501
1719102696723378200,15.523378173828124,5.546490669250488,-1.6052775382995605,-0.4065956771373749,0.4199787974357605,-0.7835204005241394,-0.45794498920440674,-1.1599233150482178,0.3617675304412842,0.34115421772003174,0.5658480996965374,0.11991776452087445,0.5066036307691778,0.6393656752337261
1719102696733433300,15.533433349609375,7.616109848022461,-2.287343740463257,0.17522187530994415,0.41267210245132446,-0.8116870522499084,-0.41335931420326233,-0.5735303163528442,0.8303332924842834,-0.36938607692718506,0.5668876002469344,0.1443180191867796,0.5220082881596642,0.6207400111352539
1719102696743488300,15.54348828125,9.23833179473877,-2.4271786212921143,0.8483757972717285,0.39872297644615173,-0.8467996120452881,-0.3520660102367401,0.12968888878822327,1.249997854232788,-0.9022522568702698,0.5648842792832323,0.17760174208316565,0.5407629962096021,0.5974435924933671
1719102696753543400,15.55354345703125,8.124054908752441,-1.6270751953125,1.0729697942733765,0.38363921642303467,-0.8788691163063049,-0.283566951751709,0.6804019212722778,1.3769464492797852,-1.148775577545166,0.558999636307523,0.21123663268686027,0.5599960767706517,0.5738492840130924
1719102696763597300,15.563597412109376,5.8371992111206055,-0.6638023853302002,1.2009416818618774,0.3705717623233795,-0.9011332392692566,-0.22502289712429047,0.7831910252571106,1.2251384258270264,-0.7179855704307556,0.5510701927030187,0.23726154507538266,0.5754958841178026,0.5557274461462901
1719102696773652200,15.57365234375,2.665327787399292,-0.19186972081661224,1.5111240148544312,0.35762646794319153,-0.9149197340011597,-0.18714973330497742,0.7045226097106934,0.7845182418823242,-0.34335261583328247,0.5431329602145686,0.2539753121566438,0.5847406894156761,0.5464259892271788
1719102696783707100,15.58370703125,-0.5879529714584351,-0.6593359708786011,1.9256370067596436,0.34107908606529236,-0.9228057861328125,-0.17914894223213196,0.7142187356948853,0.08767712116241455,-0.21001122891902924,0.5382278176121693,0.2628156955445079,0.5842546004165577,0.5476177206362971
1719102696793761300,15.59376123046875,-3.044773578643799,-1.1584675312042236,2.2697832584381104,0.31961214542388916,-0.9263193011283875,-0.19945037364959717,0.9652083516120911,-0.501414954662323,-0.026654407382011414,0.5375326946109868,0.26658014629774796,0.5737681086108569,0.5574797681879688
1719102696803816200,15.603816162109375,-4.949409484863281,-1.1836762428283691,2.0685784816741943,0.29588353633880615,-0.9242305159568787,-0.2413519024848938,1.3486629724502563,-0.6561526656150818,0.178180530667305,0.5401567744155014,0.2654679153733355,0.555743497646063,0.5735037391336902
1719102696813871000,15.61387109375,-5.9127726554870605,-1.6278342008590698,0.8505094647407532,0.2756679058074951,-0.9144534468650818,-0.29628023505210876,1.5027897357940674,-0.30124467611312866,0.35160860419273376,0.5466233093835277,0.25991866701827077,0.5331999320259754,0.5910524380262728
1719102696823926300,15.62392626953125,-6.574203968048096,-3.209174394607544,2.118368625640869,0.2552850842475891,-0.8967660665512085,-0.3614417612552643,1.4731848239898682,0.02844947576522827,0.3787146806716919,0.5579240391270645,0.2535258786156051,0.5049789625519845,0.6078171136524528
1719102696833980400,15.63398046875,-5.737171649932861,-2.836562156677246,2.9448392391204834,0.21856722235679626,-0.8790236711502075,-0.4237283170223236,1.6688228845596313,0.3948013186454773,0.673880934715271,0.5647526903012735,0.25245411316789723,0.47371168376095685,0.6268320885531034
1719102696844035000,15.64403515625,-4.839938640594482,-1.9303799867630005,2.550006866455078,0.18402902781963348,-0.8598774075508118,-0.4761764705181122,1.537513256072998,0.7549275159835815,0.38413551449775696,0.568743289341591,0.2510211774573431,0.4459822076360448,0.6439093242112476
1719102696854090200,15.65409033203125,-3.7358694076538086,-1.090241551399231,2.754765510559082,0.1539277732372284,-0.8433957695960999,-0.5147715210914612,0.9873991012573242,0.6910063624382019,0.2824564576148987,0.5687986972333502,0.2497630835776101,0.42453816082722684,0.6586756749326702
1719102696864145200,15.664145263671875,-0.945785641670227,-0.18242481350898743,1.0448452234268188,0.1344122290611267,-0.8334658741950989,-0.5359737277030945,0.8155847191810608,0.6134647727012634,-0.22127419710159302,0.5665499214792752,0.24891956138316965,0.41237385255875925,0.6685864894542377
1719102696874199000,15.674198974609375,1.5414090156555176,-0.2529602348804474,2.3620481491088867,0.11993737518787384,-0.8376732468605042,-0.5328400135040283,0.6970945000648499,0.13805782794952393,-0.4326445460319519,0.5611808344593439,0.25410097433819256,0.4111115248653641,0.671934531577567
1719102696884254200,15.684254150390625,0.506756067276001,1.0732353925704956,1.8060896396636963,0.10029231011867523,-0.8464378714561462,-0.5229573845863342,1.2086981534957886,-0.10535961389541626,-0.42479652166366577,0.5514431323054139,0.261946974348088,0.41219544082070325,0.6763055435986043
1719102696894309400,15.694309326171876,-1.5229109525680542,-0.12083709239959717,1.3049649000167847,0.09351170063018799,-0.8455145955085754,-0.5257002115249634,1.008172869682312,-0.13156670331954956,-1.1026262044906616,0.5460318233737123,0.2608192414436322,0.4112459337018949,0.6816886542765285
1719102696904362800,15.70436279296875,-4.944740295410156,-1.884830355644226,0.9164105653762817,0.07574213296175003,-0.8283809423446655,-0.5550209283828735,1.036211609840393,-0.7325016856193542,-0.7539085745811462,0.5477347907134101,0.258127931162866,0.3947904781525566,0.6910116720361333
1719102696914417700,15.714417724609374,-5.575356483459473,-2.1650381088256836,0.04072604328393936,0.06152382493019104,-0.798383891582489,-0.5989975929260254,1.0770565271377563,-1.2388627529144287,0.10551309585571289,0.5579197324999625,0.25168610863245866,0.3703448597420206,0.6987306251885802
1719102696924472600,15.72447265625,-4.986815929412842,-2.3800017833709717,1.508409023284912,0.04061757028102875,-0.7654500007629395,-0.6422122120857239,-0.01879746839404106,-1.533393383026123,0.26533544063568115,0.5659730654514995,0.2463023273220476,0.3438445085305049,0.7076585417141372
1719102696934527700,15.73452783203125,-3.4136962890625,-2.640625476837158,0.8525354266166687,0.014324299991130829,-0.738178014755249,-0.674453854560852,-0.10476312041282654,-0.605816125869751,0.37234508991241455,0.5695483522403771,0.2449575049259683,0.32057587451662145,0.7161295627614969
1719102696944581600,15.74458154296875,-2.223275899887085,-1.0093350410461426,1.3270866870880127,-0.007072454784065485,-0.7189352512359619,-0.6950410604476929,-0.07318875938653946,0.051927804946899414,0.43477189540863037,0.571798936157015,0.24553342864844224,0.30363268957895423,0.7215028810979016
1719102696954636500,15.754636474609375,-0.939598560333252,0.05346627160906792,1.1513786315917969,-0.01838364265859127,-0.7087040543556213,-0.7052663564682007,-0.1964295655488968,0.16250044107437134,0.4430745840072632,0.5691780302611779,0.24438730843066375,0.29604335492964046,0.7270966553297965
1719102696964691700,15.764691650390626,-0.8833025097846985,0.141835555434227,1.5107815265655518,-0.029038218781352043,-0.7024716734886169,-0.7111191153526306,-0.6552421450614929,0.13719457387924194,0.18171536922454834,0.5652516738093054,0.24447961062774468,0.2909813950630438,0.7321544303907744
1719102696974745900,15.774745849609374,-1.5649230480194092,-0.14511153101921082,1.6809346675872803,-0.03991897776722908,-0.6930364370346069,-0.7197964787483215,-0.15528668463230133,-0.40049993991851807,0.2176297903060913,0.560566240106783,0.24304072097810905,0.2846628806037083,0.7386905749849406
1719102696984800500,15.784800537109374,-2.1393532752990723,-0.2891017496585846,1.484600305557251,-0.05216636881232262,-0.6781253814697266,-0.7330925464630127,0.2158932089805603,-0.6530361175537109,0.3435204029083252,0.5573494812178865,0.24052243568120124,0.2749594297524256,0.7455923164331195
1719102696994855700,15.794855712890625,-2.2442786693573,-0.2231120616197586,1.4029747247695923,-0.06382043659687042,-0.661133348941803,-0.7475490570068359,0.11533413082361221,-0.5983270406723022,0.42284202575683594,0.5546193982417589,0.23730305604883684,0.2644101671895446,0.7524438545703215
1719102697004910600,15.80491064453125,-2.400053024291992,-0.10505519807338715,1.6815816164016724,-0.07539837062358856,-0.6421723365783691,-0.7628431916236877,-0.14159683883190155,-0.3439726233482361,0.31362444162368774,0.5518464326844241,0.23351365859705767,0.2530805911539539,0.7595307567411176
1719102697014964500,15.814964599609375,-2.2599802017211914,0.18749837577342987,1.7368682622909546,-0.0870278924703598,-0.6225278377532959,-0.7777436971664429,-0.3457571268081665,-0.2151186466217041,0.27133500576019287,0.5477407870649935,0.2293729032097872,0.24190129713112693,0.7673668123883413
1719102697025019600,15.82501953125,-2.4354569911956787,0.4108917713165283,1.6335124969482422,-0.094650037586689,-0.6022640466690063,-0.7926660180091858,-0.4258119761943817,-0.26213109493255615,0.3258538842201233,0.5435113203296195,0.2235272028958836,0.23173817687764448,0.7751957607179366
1719102697035074800,15.83507470703125,-2.1384778022766113,0.4110547602176666,1.6488100290298462,-0.09985031187534332,-0.5812668800354004,-0.8075634241104126,-0.4191315770149231,-0.2512526512145996,0.3593364953994751,0.5392298163188716,0.21665321370119725,0.22199024964258243,0.782951316860348
1719102697045129500,15.84512939453125,-1.905942678451538,0.5807164907455444,1.9713020324707031,-0.10580355674028397,-0.5626763105392456,-0.8198786377906799,-0.060730837285518646,-0.0630561113357544,0.33652597665786743,0.5336877574844605,0.21097359718049602,0.2134263977902495,0.7906431801420845
1719102697055183600,15.85518359375,-1.3401832580566406,0.6372484564781189,1.0936366319656372,-0.10965951532125473,-0.5475932359695435,-0.8295278549194336,0.3588660955429077,0.13990890979766846,0.3724355697631836,0.5284231876860829,0.2059448653506974,0.20693667031237828,0.7972031332882452
1719102697065238800,15.86523876953125,-0.34204864501953125,0.8957650065422058,0.7990904450416565,-0.10814691334962845,-0.5387775897979736,-0.8354776501655579,0.5365221500396729,0.48026013374328613,0.46246129274368286,0.5246640924468825,0.20123446361958255,0.2043669609586708,0.8015399629857205
1719102697075293400,15.87529345703125,1.796241044998169,0.9016822576522827,0.45572370290756226,-0.10461905598640442,-0.54383784532547,-0.8326435089111328,0.6023760437965393,0.8036492466926575,0.4344959259033203,0.5205753022334048,0.20033967118791038,0.20866784028479105,0.8033199355483475
1719102697085347600,15.88534765625,3.702329158782959,1.2765823602676392,-0.15614500641822815,-0.0964534804224968,-0.5674445033073425,-0.8177428841590881,0.5950191617012024,1.0683295726776123,0.21238094568252563,0.5159815762901293,0.20361094984814304,0.2228702217562601,0.8016448380426634
1719102697095402800,15.89540283203125,4.483036041259766,1.9655685424804688,-0.5913196206092834,-0.08115821331739426,-0.6008918285369873,-0.7951995730400085,0.21844156086444855,1.1391608715057373,0.06302183866500854,0.5115824296010193,0.2072878683065635,0.2437866752065535,0.7974228651024163
1719102697105457700,15.905457763671874,3.839585304260254,1.8213149309158325,-0.7007925510406494,-0.061029523611068726,-0.6360632181167603,-0.769219696521759,-0.2149714231491089,0.9620672464370728,0.08034640550613403,0.5068873690821998,0.2095633720232666,0.26734497518978995,0.7922594114303354
1719102697115512600,15.9155126953125,1.0660451650619507,1.4971562623977661,-0.7244782447814941,-0.04414338991045952,-0.6552225351333618,-0.7541450262069702,-0.2716677486896515,0.2089945673942566,0.04296344518661499,0.5048802847776623,0.20843672681555836,0.28192483055529843,0.7887764583933391
1719102697125566700,15.925566650390625,-1.020838737487793,1.2634673118591309,-0.6825363636016846,-0.02826109156012535,-0.655612587928772,-0.754568338394165,-0.11958130449056625,-0.5020869374275208,0.24873954057693481,0.5056231628225641,0.20163077215388672,0.286462651067402,0.7884347025427191
1719102697135621600,15.93562158203125,-2.5294597148895264,1.158752679824829,-0.2848462462425232,-0.017039934173226357,-0.6411718726158142,-0.7672080993652344,0.027538003399968147,-0.826113224029541,0.20231246948242188,0.5077952316454849,0.19186385279913465,0.2821067533339263,0.7910423426081028
1719102697145676500,15.945676513671875,-2.725691556930542,1.0954186916351318,-0.48767659068107605,-0.006469706539064646,-0.620210587978363,-0.7844086289405823,0.2056884765625,-0.4972209930419922,0.17459112405776978,0.5104004859080535,0.18028263582663293,0.27439724805844895,0.7947928057319208
1719102697155731700,15.955731689453126,-2.652135133743286,1.2366477251052856,-0.16829422116279602,0.005167228169739246,-0.5988879799842834,-0.8008161187171936,0.22125796973705292,0.11660343408584595,0.029011309146881104,0.5125676432735813,0.1681706078677901,0.2670404308183229,0.7985501858279102
1719102697165785600,15.96578564453125,-2.2918848991394043,1.0236235857009888,-0.02928546443581581,0.014636456035077572,-0.5784716010093689,-0.8155711889266968,0.28104835748672485,0.3339952826499939,-0.05816233158111572,0.5133195107717702,0.15708136331404773,0.25988427545125986,0.802676004326932
1719102697175840500,15.975840576171874,-1.9437223672866821,0.920706033706665,-0.015066981315612793,0.022389691323041916,-0.5613025426864624,-0.8273077607154846,0.296641081571579,0.3101733922958374,-0.06270688772201538,0.5138444556703656,0.14796432763384684,0.2538753054861527,0.8059886746119329
1719102697185895700,15.985895751953125,-1.5709657669067383,1.0631510019302368,0.07203090190887451,0.030496694147586823,-0.5466291308403015,-0.8368192911148071,0.3365840017795563,0.2819196581840515,0.08297407627105713,0.5136850838453867,0.1394379727675468,0.2492938123271066,0.8090347542419329
1719102697195949600,15.995949462890625,-1.03798246383667,1.2278026342391968,-0.06948255002498627,0.03964833542704582,-0.5351883172988892,-0.843801736831665,0.21714183688163757,0.38069313764572144,0.19943839311599731,0.5131664884534263,0.13150297803554753,0.24658889679705062,0.8115176755201805
1719102697206004700,16.006004638671875,-1.2641266584396362,1.172580361366272,-0.3648422956466675,0.051229942589998245,-0.5254058241844177,-0.8493080735206604,-0.004812687635421753,0.3464049696922302,0.1437569260597229,0.5133205701397355,0.12331412837095905,0.24523375363135344,0.8131149346462573
1719102697216059600,16.0160595703125,-1.3237500190734863,1.2488762140274048,-0.4193173050880432,0.06347594410181046,-0.5144988298416138,-0.8551384210586548,0.05921999365091324,0.41771239042282104,0.08550035953521729,0.5142402673779608,0.11475476824450591,0.24343816537875732,0.8143255040821596
1719102697226114800,16.02611474609375,-1.5825018882751465,1.1764792203903198,-0.4445619583129883,0.07626396417617798,-0.5012531876564026,-0.8619333505630493,0.22445625066757202,0.4785023331642151,0.07934057712554932,0.5153423883546158,0.10532463573169246,0.24070740848790592,0.8157137044601273
1719102697236168700,16.036168701171874,-1.2824996709823608,0.9036255478858948,-0.16546468436717987,0.08630819618701935,-0.4884779751300812,-0.868297278881073,0.24076396226882935,0.3685744106769562,0.165752112865448,0.5162212893393555,0.09722204475468968,0.23748523179731623,0.8171072156660244
1719102697246223600,16.0462236328125,-1.6148275136947632,1.097488284111023,-0.14840500056743622,0.09584540128707886,-0.47599607706069946,-0.8742089867591858,0.14850884675979614,0.16883668303489685,0.15982306003570557,0.5161493220726536,0.08920647306720754,0.23438793323456147,0.8189593130896861
1719102697256278800,16.05627880859375,-2.1377367973327637,1.077691674232483,-0.24122075736522675,0.1066134050488472,-0.458670049905777,-0.8821877837181091,0.1512754261493683,0.21744385361671448,0.2063760757446289,0.5165925460174245,0.07937780564218426,0.22935836346449534,0.8211126171456083
1719102697266333700,16.066333740234374,-2.422991991043091,1.155990719795227,-0.2846590578556061,0.11726824194192886,-0.4380919933319092,-0.891248345375061,0.13299119472503662,0.2994353771209717,0.29450762271881104,0.5173451028134908,0.06878353366130438,0.22281082558729187,0.8233943057392565
1719102697276387600,16.0763876953125,-2.2948641777038574,1.2667508125305176,-0.29652395844459534,0.12941187620162964,-0.41555118560791016,-0.9003164768218994,0.11338599026203156,0.42083072662353516,0.2897360324859619,0.5179830784606446,0.057036558248347705,0.2158438913244395,0.8257431648830473
1719102697286442500,16.0864423828125,-1.899072527885437,1.4445804357528687,-0.4343148469924927,0.1429612636566162,-0.3958778977394104,-0.9071068167686462,0.06207109987735748,0.4706612229347229,0.27574390172958374,0.5186062691021635,0.04562812306414911,0.2106292047946506,0.8274062096426658
1719102697296497700,16.09649755859375,-1.3641822338104248,1.5202853679656982,-0.4152703583240509,0.1583160012960434,-0.3812095522880554,-0.9108322262763977,0.06322638690471649,0.3208305239677429,0.2262466549873352,0.519053547519584,0.0349286566322513,0.2082399614073494,0.8282509160980791
1719102697306551800,16.1065517578125,-0.8453204035758972,1.7130446434020996,-0.4703170955181122,0.17455267906188965,-0.3697713017463684,-0.9125790596008301,0.045204415917396545,0.2472737729549408,0.24074983596801758,0.5195483928350253,0.02483704915510021,0.20758996814657382,0.8284678247378777
1719102697316606500,16.1166064453125,-0.5808217525482178,1.8738635778427124,-0.5414287447929382,0.192963644862175,-0.3625004291534424,-0.9117886424064636,0.1256856471300125,0.2898533344268799,0.2917630076408386,0.5199315682421642,0.015014043042866238,0.2094761833683585,0.8279888086125299
1719102697326661600,16.12666162109375,-0.28421834111213684,1.776383638381958,-0.7513891458511353,0.21160945296287537,-0.35695961117744446,-0.9098358750343323,0.22614994645118713,0.28005531430244446,0.19297796487808228,0.5206467614991365,0.005686148481230878,0.21224924377795765,0.8269491192462921
1719102697336716500,16.136716552734374,-0.2278328388929367,1.8151215314865112,-0.7770642638206482,0.23170597851276398,-0.3537982702255249,-0.9061672687530518,0.20951715111732483,0.04499092698097229,0.30706143379211426,0.5217503469652904,-0.0034603880126689215,0.2165742268613355,0.8251425033342683
1719102697346770400,16.1467705078125,-0.25120607018470764,1.7532964944839478,-0.7802334427833557,0.250937283039093,-0.34974539279937744,-0.9026120901107788,0.4177791476249695,-0.015168547630310059,0.3489622473716736,0.5230417416743648,-0.01243111481028046,0.22031661031639216,0.8232456472634815
1719102697356825600,16.15682568359375,-0.28191226720809937,2.052668809890747,-0.6219721436500549,0.2706451117992401,-0.34501001238822937,-0.89873206615448,0.4287109673023224,0.08416101336479187,0.604817271232605,0.523721476810441,-0.021952539791615346,0.22394654663321598,0.8216336366819733
1719102697366880800,16.166880859375,-0.4351428151130676,2.3320112228393555,-0.6389868259429932,0.29284313321113586,-0.3395867347717285,-0.893825352191925,0.24451041221618652,-0.11039495468139648,0.7390859723091125,0.5237714763530251,-0.032894775806231215,0.22804661839704338,0.8201073512197653
1719102697376934700,16.1769345703125,-0.11973294615745544,2.6246094703674316,-0.20333856344223022,0.3167758285999298,-0.3360055983066559,-0.8869911432266235,0.1397823989391327,-0.31201988458633423,0.870252251625061,0.5226976790424557,-0.044365606289731824,0.23352970884316887,0.8187078496993233
1719102697386989600,16.186989501953125,-0.42583879828453064,2.822087049484253,-0.2620562016963959,0.3414958119392395,-0.3331905007362366,-0.878842830657959,0.3576619029045105,-0.2938999533653259,0.7924933433532715,0.5204241187570965,-0.05632702897531487,0.23959519727761028,0.8176674688092407
1719102697397044700,16.197044677734375,0.0053826854564249516,3.0299232006073,-0.35454073548316956,0.36870434880256653,-0.32932278513908386,-0.8692546486854553,0.47144457697868347,-0.18227389454841614,0.7769847512245178,0.5180345839261038,-0.06973640895346521,0.24598682201745364,0.8162521026731708
1719102697407099600,16.207099609375,1.2494533061981201,3.2201998233795166,-0.4756415784358978,0.3972810208797455,-0.33364105224609375,-0.8548985123634338,0.378155380487442,0.00354766845703125,0.6685581803321838,0.5161909464928816,-0.08128402572754598,0.25679496270165986,0.8130167626083344
1719102697417153500,16.217153564453124,0.5036587715148926,3.1485109329223633,-0.6475790143013,0.42593440413475037,-0.3394854962825775,-0.8386474251747131,0.47299137711524963,0.285209983587265,0.29293209314346313,0.5148063417445099,-0.09233064385279104,0.2686100389273236,0.8088869043687545
1719102697427208700,16.227208740234374,-0.16097012162208557,3.138350248336792,-0.7910301685333252,0.45446503162384033,-0.3379257619380951,-0.8241769671440125,0.5955380201339722,0.35814368724823,0.3351938724517822,0.5134926522819211,-0.10548958301535076,0.277098306550654,0.8052413281517196
1719102697437263600,16.237263671875,-1.113619327545166,3.2065227031707764,-0.9166889786720276,0.4838179647922516,-0.3281629681587219,-0.811313271522522,0.6594162583351135,0.3832624554634094,0.3259769678115845,0.5123002292304774,-0.12140604417191317,0.2821417110267218,0.8020006070371933
1719102697447318500,16.247318603515627,-2.4375882148742676,3.4606122970581055,-0.872189462184906,0.5132346749305725,-0.309649258852005,-0.8004420399665833,0.6032508611679077,0.4346798360347748,0.22753560543060303,0.5099379112332243,-0.14037939451732104,0.28297102161474513,0.8001151825766207
1719102697457372700,16.25737255859375,-3.079242706298828,3.2966017723083496,-0.7609574198722839,0.5424636602401733,-0.28309428691864014,-0.7909429669380188,0.5424209833145142,0.03280436992645264,0.1875951886177063,0.5067082828221984,-0.16197606662904834,0.27980756807610935,0.7991983669251208
1719102697467427800,16.267427734375,-3.259761333465576,3.0153164863586426,-0.8186966180801392,0.5698813199996948,-0.2527191936969757,-0.7819004058837891,0.4358711838722229,-0.1973540484905243,0.15015602111816406,0.5026528002653384,-0.1842222617610204,0.2740656045631539,0.7989307379066629
1719102697477482500,16.277482421875,-2.9847025871276855,3.2056870460510254,-0.9227888584136963,0.5955935716629028,-0.22380384802818298,-0.7714791893959045,0.6992367506027222,0.06703504920005798,0.19239288568496704,0.4988903239018028,-0.20527845933457217,0.268553837509842,0.7980275638382103
1719102697487536600,16.28753662109375,-3.0989136695861816,3.539912462234497,-1.321256399154663,0.6238582134246826,-0.1939006745815277,-0.7571020126342773,0.7003757953643799,0.4015575051307678,0.10813045501708984,0.49586530144073504,-0.22768804671294082,0.26383166474791686,0.7954046678565594
1719102697497591800,16.297591796875,-3.146357297897339,3.7089767456054688,-1.1634531021118164,0.6533357501029968,-0.16257470846176147,-0.739406406879425,0.3963010907173157,0.414909303188324,0.15885531902313232,0.4923564391415207,-0.2514692551384556,0.2589594500790776,0.7920153683560767
1719102697507646500,16.307646484375,-3.19103741645813,3.9182026386260986,-1.1558090448379517,0.6830146312713623,-0.13145413994789124,-0.7184782028198242,0.5346519947052002,0.34614530205726624,0.07020854949951172,0.48781019290551264,-0.27596310387853396,0.2541756695613838,0.7882134513509071
1719102697517701600,16.31770166015625,-2.9122846126556396,3.8048059940338135,-1.4981893301010132,0.7124891877174377,-0.10075406730175018,-0.6944117546081543,0.56914222240448,0.352646142244339,-0.16999858617782593,0.4836997597272272,-0.3005250692990765,0.24995758823511988,0.783096594415506
1719102697527755800,16.327755859375,-2.814450979232788,3.882890462875366,-1.9735015630722046,0.7409461736679077,-0.06827003508806229,-0.6680853366851807,0.3893486261367798,0.5026572346687317,-0.30934691429138184,0.4810874424489636,-0.3251222033182285,0.24546463765966195,0.7762715937826451
1719102697537810700,16.337810791015624,-2.9363479614257812,4.086240291595459,-2.4425816535949707,0.7679502367973328,-0.03363271802663803,-0.6396259069442749,0.45467549562454224,1.1504693031311035,-0.3383404016494751,0.48027141710871024,-0.3496511058574998,0.2406888783960965,0.7675626408057099
1719102697547865600,16.347865478515626,-3.351138114929199,4.0485310554504395,-2.2354719638824463,0.7935769557952881,0.004571426659822464,-0.6084528565406799,0.7066673040390015,1.0281891822814941,-0.39572811126708984,0.47874282223380893,-0.37549413752239097,0.23404642835987396,0.7583085588303776
1719102697557920800,16.357920654296876,-4.635132312774658,3.723234176635742,-2.582984685897827,0.816099226474762,0.048213761299848557,-0.5758971571922302,0.8053149580955505,0.36122530698776245,-0.3490601181983948,0.4753990686875722,-0.4027501206740921,0.22325717553844554,0.7496294406264109
1719102697567974700,16.367974609375,-4.463386058807373,3.456432342529297,-2.4697437286376953,0.8345271348953247,0.09521965682506561,-0.5426763892173767,0.7453983426094055,0.4343060851097107,-0.2441278100013733,0.47145190878779225,-0.42994799929009353,0.20930006775267226,0.740993444904823
1719102697578029600,16.378029541015625,-4.008499622344971,3.594346761703491,-2.242969036102295,0.8497915863990784,0.13736538589000702,-0.5089056491851807,0.8153389692306519,0.6474856734275818,-0.32985472679138184,0.46713529497355355,-0.4549360892876657,0.19641879636346132,0.7322823117841625
1719102697588084700,16.388084716796875,-3.452443838119507,3.5599617958068848,-2.4534049034118652,0.8642072677612305,0.17610205709934235,-0.47131064534187317,0.7829331159591675,0.3636164963245392,-0.39398476481437683,0.46367616486161195,-0.4793265831209244,0.18598576248172538,0.7215674945596142
1719102697598138600,16.398138671875,-2.8292348384857178,3.304908275604248,-2.2921321392059326,0.8747709393501282,0.21081356704235077,-0.4362722337245941,0.6529542207717896,0.15846434235572815,-0.29788917303085327,0.4614823823091049,-0.5006244523665979,0.1767456976409744,0.7107532427040636
1719102697608193500,16.408193603515624,-2.896902084350586,3.446319103240967,-2.7472877502441406,0.8829196691513062,0.24524708092212677,-0.40038323402404785,0.8829188942909241,0.44679999351501465,-0.10042548179626465,0.4603511399274275,-0.5211791618701638,0.16787099269988318,0.6987620819804544
1719102697618248700,16.418248779296874,-3.7108535766601562,3.4628422260284424,-3.060265302658081,0.8884850144386292,0.28358104825019836,-0.3607993721961975,0.7164496779441833,0.7641484141349792,-0.1438698172569275,0.45888648504502183,-0.5431596814111177,0.15677331384782459,0.6854362723994443
1719102697628303600,16.4283037109375,-4.1746015548706055,3.620356559753418,-3.226444959640503,0.890679657459259,0.32546910643577576,-0.31742629408836365,0.6112123131752014,0.7061318159103394,-0.11036911606788635,0.4560254069328426,-0.5665657811244322,0.14244322950783647,0.6713820742383979
1719102697638357800,16.438357666015627,-3.758273124694824,3.4788777828216553,-3.0415868759155273,0.890652060508728,0.3654988408088684,-0.2704615592956543,0.7919345498085022,0.3148294985294342,-0.07246449589729309,0.45232065400656185,-0.5901749703765906,0.12830717585123222,0.6562291776054302
1719102697648412700,16.44841259765625,-3.070645332336426,3.2636666297912598,-3.0301859378814697,0.8872936367988586,0.40135419368743896,-0.22721083462238312,0.9300128221511841,-0.06639328598976135,-0.20705430209636688,0.44963853492295397,-0.610815836361444,0.11531953976866684,0.6414285220234655
1719102697658467600,16.458467529296875,-2.119889736175537,3.037177562713623,-2.7274677753448486,0.8817630410194397,0.4320589601993561,-0.1892586648464203,1.079494833946228,0.015984803438186646,-0.0642966628074646,0.4493288171998621,-0.6278898657864467,0.10547505248991294,0.6266840188349742
1719102697668522500,16.4685224609375,-1.9974353313446045,3.054701805114746,-3.104912757873535,0.8740851879119873,0.4611518681049347,-0.15268878638744354,1.2445976734161377,0.07841411232948303,-0.14534591138362885,0.44994813298859176,-0.6436847052761131,0.09656919457067244,0.6114662336372365
1719102697678576600,16.47857666015625,-1.9704458713531494,3.572902202606201,-3.2598657608032227,0.8630196452140808,0.4918871521949768,-0.11508262157440186,1.2456533908843994,0.2916821241378784,0.003434009850025177,0.45203661935099243,-0.6593700864486381,0.08769138306944763,0.594309784140067
1719102697688631600,16.488631591796874,-2.122917890548706,3.2527215480804443,-3.4775655269622803,0.849190354347229,0.5226892232894897,-0.07531047612428665,1.1495126485824585,0.429657518863678,0.10973429679870605,0.45366826002979443,-0.675440833843916,0.07825882448851956,0.5760558203748314
1719102697698686700,16.498686767578125,-2.3085646629333496,3.045854330062866,-3.572967052459717,0.8316912055015564,0.5540652275085449,-0.03607148304581642,1.3965344429016113,0.279629111289978,0.07740753889083862,0.4548066972240338,-0.6910181070864964,0.06677001264316611,0.5578409019737358
1719102697708740600,16.50874072265625,-1.3212968111038208,2.7757070064544678,-3.674149513244629,0.8116999268531799,0.5840743780136108,-0.0004590112075675279,1.8479527235031128,0.09300380945205688,-0.07502627372741699,0.45686909913411083,-0.7047649830267784,0.05546902823510131,0.5399074855347853
1719102697718795500,16.51879541015625,-0.028418686240911484,2.547847270965576,-3.43743634223938,0.789691150188446,0.6129987835884094,0.024907061830163002,2.056988477706909,-0.0874251127243042,-0.24748706817626953,0.4635872588567702,-0.7143012911590728,0.04719317791374065,0.5221430195606789
1719102697728850700,16.5288505859375,1.4192774295806885,2.1903936862945557,-2.977381467819214,0.7688485383987427,0.638193666934967,0.03976024314761162,1.8188438415527344,-0.3506265878677368,-0.19323313236236572,0.47354573694198404,-0.7197456194110523,0.04296935237757432,0.50584024577586
1719102697738905600,16.538905517578126,1.418255090713501,1.9808489084243774,-2.387805700302124,0.7503668069839478,0.6594405174255371,0.04569350183010101,1.4684900045394897,-0.5072494149208069,0.013831019401550293,0.4854148885467467,-0.7218560639630345,0.042078192909859924,0.49145258689073534
